t,ax,ay,az,gx,gy,gz,q0,q1,q2,q3,q4,q5,q6,q7,q8,q9,q10,q11,c0,c1,c2,c3
2,0.016160861206054686,-0.02154781494140625,10.017938296508788,0.023435817592697299,0.0090547477062694112,-0.0010652644360316954,-0.0030679615757712823,0.85749526042807345,-1.7759662571746011,0.0034514567727426926,0.85749526042807345,-1.7759662571746011,-0.0034514567727426926,0.85749526042807345,-1.7771167427655152,0.0038349519697141029,0.85749526042807345,-1.7775002379624867,1,1,1,1
2.0009999999999999,0.064643444824218743,-0.13287819213867189,9.90840357055664,-0.0026631610900792382,-0.010652644360316953,0.0026631610900792382,-0.0030679615757712823,0.85749526042807345,-1.7759662571746011,0.0034514567727426926,0.85749526042807345,-1.7759662571746011,-0.0034514567727426926,0.85749526042807345,-1.7771167427655152,0.0038349519697141029,0.85749526042807345,-1.7775002379624867,1,1,1,1
2.0020000000000002,0.012569558715820313,-0.082599957275390629,9.867103591918946,0.0053263221801584763,-0.017576863194522972,0.0074568510522218679,-0.0030679615757712823,0.85749526042807345,-1.7759662571746011,0.0034514567727426926,0.85749526042807345,-1.7759662571746011,-0.0034514567727426926,0.85749526042807345,-1.7771167427655152,0.0038349519697141029,0.85749526042807345,-1.7775002379624867,1,1,1,1
2.0030000000000001,0.03591302490234375,-0.095169515991210943,9.8940383605957027,0.0042610577441267814,-0.0053263221801584763,-0.001597896654047543,-0.0030679615757712823,0.85749526042807345,-1.7759662571746011,0.0034514567727426926,0.85749526042807345,-1.7759662571746011,-0.0034514567727426926,0.85749526042807345,-1.7771167427655152,0.0038349519697141029,0.85749526042807345,-1.7775002379624867,1,1,1,1
2.004,0.089782562255859372,-0.053869537353515629,9.9299513854980468,-0,-0.0047936899621426289,0.0074568510522218679,-0.0030679615757712823,0.85749526042807345,-1.7759662571746011,0.0034514567727426926,0.85749526042807345,-1.7759662571746011,-0.0034514567727426926,0.85749526042807345,-1.7771167427655152,0.0038349519697141029,0.85749526042807345,-1.7775002379624867,1,1,1,1
2.0049999999999999,0.0430956298828125,-0.032321722412109372,9.9766383178710942,-0,0.0085221154882535628,0.018109495412538822,-0.0030679615757712823,0.85749526042807345,-1.7759662571746011,0.0034514567727426926,0.85749526042807345,-1.7759662571746011,-0.0034514567727426926,0.85749526042807345,-1.7771167427655152,0.0038349519697141029,0.85749526042807345,-1.7775002379624867,1,1,1,1
2.0060000000000002,0.1274912384033203,-0.028730419921875,10.008960040283203,-0.0095873799242852577,-0.00053263221801584768,0.0047936899621426289,-0.0030679615757712823,0.85749526042807345,-1.7759662571746011,0.0034514567727426926,0.85749526042807345,-1.7759662571746011,-0.0034514567727426926,0.85749526042807345,-1.7771167427655152,0.0038349519697141029,0.85749526042807345,-1.7775002379624867,1,1,1,1
2.0070000000000001,0.11671733093261719,-0.089782562255859372,9.9012209655761723,-0.0026631610900792382,-0.018642127630554669,0.011717908796348649,-0.0030679615757712823,0.85749526042807345,-1.7759662571746011,0.0034514567727426926,0.85749526042807345,-1.7759662571746011,-0.0034514567727426926,0.85749526042807345,-1.7771167427655152,0.0038349519697141029,0.85749526042807345,-1.7775002379624867,1,1,1,1
2.008,0.12928688964843749,-0.070030398559570314,9.9263600830078129,0,-0.019707392066586366,0.003728425526110934,-0.0030679615757712823,0.85749526042807345,-1.7759662571746011,0.0034514567727426926,0.85749526042807345,-1.7759662571746011,-0.0034514567727426926,0.85749526042807345,-1.7771167427655152,0.0038349519697141029,0.85749526042807345,-1.7775002379624867,1,1,1,1
2.0089999999999999,-0.030526071166992186,-0.13467384338378907,9.8168253570556647,0.0042610577441267814,-0.021305288720633905,0.0010652644360316954,-0.0030679615757712823,0.85749526042807345,-1.7759662571746011,0.0034514567727426926,0.85749526042807345,-1.7759662571746011,-0.0034514567727426926,0.85749526042807345,-1.7771167427655152,0.0038349519697141029,0.85749526042807345,-1.7775002379624867,1,1,1,1
2.0100000000000002,0.003591302490234375,-0.0053869537353515625,9.8419644744873054,0.013315805450396193,-0.0069242188342060196,0.010120012142301106,-0.0030679615757712823,0.85749526042807345,-1.7759662571746011,0.0034514567727426926,0.85749526042807345,-1.7759662571746011,-0.0034514567727426926,0.85749526042807345,-1.7771167427655152,0.0038349519697141029,0.85749526042807345,-1.7771167427655152,1,1,1,1
2.0110000000000001,-0.068234747314453129,-0.028730419921875,9.9784339691162103,-0.011717908796348649,-0.021837920938649755,0.0074568510522218679,-0.0030679615757712823,0.85749526042807345,-1.7759662571746011,0.0034514567727426926,0.85749526042807345,-1.7759662571746011,-0.0034514567727426926,0.85749526042807345,-1.7771167427655152,0.0038349519697141029,0.85749526042807345,-1.7771167427655152,1,1,1,1
2.012,0.028730419921875,0.068234747314453129,10.017938296508788,-0.00053263221801584768,-0.0090547477062694112,0.00053263221801584768,-0.0030679615757712823,0.85749526042807345,-1.7759662571746011,0.0034514567727426926,0.85749526042807345,-1.7759662571746011,-0.0034514567727426926,0.85749526042807345,-1.7771167427655152,0.0038349519697141029,0.85749526042807345,-1.7771167427655152,1,1,1,1
2.0129999999999999,0.087986911010742186,-0.070030398559570314,9.9999817840576171,0.012250541014364496,-0.019707392066586366,0.011717908796348649,-0.0030679615757712823,0.85749526042807345,-1.7759662571746011,0.0034514567727426926,0.85749526042807345,-1.7759662571746011,-0.0034514567727426926,0.85749526042807345,-1.7771167427655152,0.0038349519697141029,0.85749526042807345,-1.7771167427655152,1,1,1,1
2.0140000000000002,-0.05027823486328125,-0.0089782562255859375,9.9730470153808586,-0.018109495412538822,-0.001597896654047543,0.0042610577441267814,-0.0030679615757712823,0.85749526042807345,-1.7759662571746011,0.0034514567727426926,0.85749526042807345,-1.7759662571746011,-0.0034514567727426926,0.85749526042807345,-1.7771167427655152,0.0038349519697141029,0.85749526042807345,-1.7771167427655152,1,1,1,1
2.0150000000000001,-0.017956512451171875,-0.05746083984375,9.888651406860351,0.00053263221801584768,0.0069242188342060196,0.0026631610900792382,-0.0030679615757712823,0.85749526042807345,-1.7759662571746011,0.0034514567727426926,0.85749526042807345,-1.7759662571746011,-0.0034514567727426926,0.85749526042807345,-1.7771167427655152,0.0038349519697141029,0.85749526042807345,-1.7771167427655152,1,1,1,1
2.016,0.073621701049804686,-0.062847793579101557,9.9353383392333985,0.0095873799242852577,-0.014913702104443736,0.016511598758491279,-0.0030679615757712823,0.85749526042807345,-1.7759662571746011,0.0034514567727426926,0.85749526042807345,-1.7759662571746011,-0.0034514567727426926,0.85749526042807345,-1.7771167427655152,0.0038349519697141029,0.85749526042807345,-1.7771167427655152,1,1,1,1
2.0169999999999999,0.037708676147460936,-0.039504327392578129,9.9497035491943357,0.012250541014364496,-0.014913702104443736,-0.0021305288720633907,-0.0030679615757712823,0.85749526042807345,-1.7759662571746011,0.0034514567727426926,0.85749526042807345,-1.7759662571746011,-0.0034514567727426926,0.85749526042807345,-1.7771167427655152,0.0038349519697141029,0.85749526042807345,-1.7771167427655152,1,1,1,1
2.0180000000000002,0.19033903198242189,0.012569558715820313,9.9227687805175773,0.001597896654047543,-0.0085221154882535628,0.0021305288720633907,-0.0030679615757712823,0.85749526042807345,-1.7759662571746011,0.0034514567727426926,0.85749526042807345,-1.7759662571746011,-0.0034514567727426926,0.85749526042807345,-1.7771167427655152,0.0038349519697141029,0.85749526042807345,-1.7771167427655152,1,1,1,1
2.0190000000000001,0.010773907470703125,-0.044891281127929686,9.928155734252929,-0.0021305288720633907,-0.013848437668412039,-0.015446334322459582,-0.0030679615757712823,0.85749526042807345,-1.7759662571746011,0.0034514567727426926,0.85749526042807345,-1.7759662571746011,-0.0034514567727426926,0.85749526042807345,-1.7771167427655152,0.0038349519697141029,0.85749526042807345,-1.7771167427655152,1,1,1,1
2.02,0.023343466186523436,-0.1005564697265625,9.9263600830078129,0.0095873799242852577,-0.0079894832702377145,0.013315805450396193,-0.0030679615757712823,0.85749526042807345,-1.7759662571746011,0.0034514567727426926,0.85749526042807345,-1.7759662571746011,-0.0034514567727426926,0.85749526042807345,-1.7771167427655152,0.0038349519697141029,0.85749526042807345,-1.7771167427655152,1,1,1,1
2.0209999999999999,-0.012569558715820313,-0.028730419921875,10.05564697265625,0.001597896654047543,-0.0063915866161901721,-0,-0.0030679615757712823,0.85749526042807345,-1.7759662571746011,0.0034514567727426926,0.85749526042807345,-1.7759662571746011,-0.0034514567727426926,0.85749526042807345,-1.7771167427655152,0.0038349519697141029,0.85749526042807345,-1.7771167427655152,1,1,1,1
2.0220000000000002,0.023343466186523436,-0.053869537353515629,9.964068759155273,0.0047936899621426289,0.0010652644360316954,0.010652644360316953,-0.0030679615757712823,0.85749526042807345,-1.7759662571746011,0.0034514567727426926,0.85749526042807345,-1.7759662571746011,-0.0034514567727426926,0.85749526042807345,-1.7771167427655152,0.0038349519697141029,0.85749526042807345,-1.7771167427655152,1,1,1,1
2.0230000000000001,0.00718260498046875,-0.052073886108398436,9.90840357055664,-0.0026631610900792382,-0.022903185374681449,0.012250541014364496,-0.0030679615757712823,0.85749526042807345,-1.7759662571746011,0.0034514567727426926,0.85749526042807345,-1.7759662571746011,-0.0034514567727426926,0.85749526042807345,-1.7771167427655152,0.0038349519697141029,0.85749526042807345,-1.7771167427655152,1,1,1,1
2.024,-0.048482583618164064,0.00718260498046875,9.9245644317626951,0.003728425526110934,-0.015978966540475429,0.010652644360316953,-0.0030679615757712823,0.85749526042807345,-1.7759662571746011,0.0034514567727426926,0.85749526042807345,-1.7759662571746011,-0.0034514567727426926,0.85749526042807345,-1.7771167427655152,0.0038349519697141029,0.85749526042807345,-1.7771167427655152,1,1,1,1
2.0249999999999999,-0.055665188598632814,-0.10235212097167969,9.9119948730468757,-0.0053263221801584763,-0.024501082028728992,0.013315805450396193,-0.0030679615757712823,0.85749526042807345,-1.7759662571746011,0.0034514567727426926,0.85749526042807345,-1.7759662571746011,-0.0034514567727426926,0.85749526042807345,-1.7771167427655152,0.0038349519697141029,0.85749526042807345,-1.7771167427655152,1,1,1,1
2.0260000000000002,0.017956512451171875,-0.087986911010742186,9.8706948944091799,-0.0079894832702377145,-0.00053263221801584768,0.0090547477062694112,-0.0030679615757712823,0.85749526042807345,-1.7759662571746011,0.0034514567727426926,0.85749526042807345,-1.7759662571746011,-0.0034514567727426926,0.85749526042807345,-1.7771167427655152,0.0038349519697141029,0.85749526042807345,-1.7771167427655152,1,1,1,1
2.0270000000000001,0,0.02154781494140625,9.9514992004394536,0.017576863194522972,-0.014913702104443736,0.010652644360316953,-0.0030679615757712823,0.85749526042807345,-1.7759662571746011,0.0034514567727426926,0.85749526042807345,-1.7759662571746011,-0.0034514567727426926,0.85749526042807345,-1.7771167427655152,0.0038349519697141029,0.85749526042807345,-1.7771167427655152,1,1,1,1
2.028,0.039504327392578129,0.066439096069335943,9.9748426666259764,-0.012250541014364496,-0.022903185374681449,-0.00053263221801584768,-0.0030679615757712823,0.85749526042807345,-1.7759662571746011,0.0034514567727426926,0.85749526042807345,-1.7759662571746011,-0.0034514567727426926,0.85749526042807345,-1.7771167427655152,0.0038349519697141029,0.85749526042807345,-1.7771167427655152,1,1,1,1
2.0289999999999999,0.10773907470703126,0.0143652099609375,9.8994253143310544,0.0021305288720633907,0.0010652644360316954,-0.0021305288720633907,-0.0030679615757712823,0.85749526042807345,-1.7759662571746011,0.0034514567727426926,0.85749526042807345,-1.7759662571746011,-0.0034514567727426926,0.85749526042807345,-1.7771167427655152,0.0038349519697141029,0.857111765231102,-1.7771167427655152,1,1,1,1
2.0300000000000002,0.032321722412109372,0.0718260498046875,9.8760818481445316,-0.0010652644360316954,-0.010120012142301106,-0.0031957933080950861,-0.0030679615757712823,0.85749526042807345,-1.7759662571746011,0.0034514567727426926,0.85749526042807345,-1.7759662571746011,-0.0034514567727426926,0.85749526042807345,-1.7771167427655152,0.0038349519697141029,0.857111765231102,-1.7771167427655152,1,1,1,1
2.0310000000000001,-0.0089782562255859375,-0.093373864746093743,9.8958340118408206,-0.010120012142301106,-0.014381069886427887,0.021305288720633905,-0.0030679615757712823,0.85749526042807345,-1.7759662571746011,0.0034514567727426926,0.85749526042807345,-1.7759662571746011,-0.0034514567727426926,0.85749526042807345,-1.7771167427655152,0.0038349519697141029,0.857111765231102,-1.7771167427655152,1,1,1,1
2.032,0.091578213500976557,0.010773907470703125,9.8347818695068359,0.0053263221801584763,-0.012250541014364496,0.0063915866161901721,-0.0030679615757712823,0.85749526042807345,-1.7759662571746011,0.0034514567727426926,0.85749526042807345,-1.7759662571746011,-0.0034514567727426926,0.85749526042807345,-1.7771167427655152,0.0038349519697141029,0.857111765231102,-1.7771167427655152,1,1,1,1
2.0329999999999999,0.053869537353515629,0.012569558715820313,9.8545340332031248,0.015446334322459582,-0.0042610577441267814,0.0010652644360316954,-0.0030679615757712823,0.85749526042807345,-1.7755827619776297,0.0034514567727426926,0.85749526042807345,-1.7759662571746011,-0.0034514567727426926,0.85749526042807345,-1.7771167427655152,0.0038349519697141029,0.857111765231102,-1.7771167427655152,1,1,1,1
2.0340000000000003,0.032321722412109372,0,9.8724905456542977,-0.0058589543981743247,0.0031957933080950861,0.017044230976507126,-0.0030679615757712823,0.85749526042807345,-1.7755827619776297,0.0034514567727426926,0.85749526042807345,-1.7759662571746011,-0.0034514567727426926,0.85749526042807345,-1.7771167427655152,0.0038349519697141029,0.857111765231102,-1.7771167427655152,1,1,1,1
2.0350000000000001,0.030526071166992186,-0.05027823486328125,9.8994253143310544,-0.0010652644360316954,-0.012783173232380344,0.0053263221801584763,-0.0030679615757712823,0.85749526042807345,-1.7755827619776297,0.0034514567727426926,0.85749526042807345,-1.7759662571746011,-0.0034514567727426926,0.85749526042807345,-1.7771167427655152,0.0038349519697141029,0.857111765231102,-1.7771167427655152,1,1,1,1
2.036,0.087986911010742186,0.028730419921875,9.8976296630859384,0.010120012142301106,-0.0010652644360316954,0.0053263221801584763,-0.0030679615757712823,0.85749526042807345,-1.7755827619776297,0.0034514567727426926,0.85749526042807345,-1.7759662571746011,-0.0034514567727426926,0.85749526042807345,-1.7771167427655152,0.0038349519697141029,0.857111765231102,-1.7771167427655152,1,1,1,1
2.0369999999999999,-0.052073886108398436,-0.048482583618164064,9.8688992431640621,0.0085221154882535628,-0.013315805450396193,0.0090547477062694112,-0.0030679615757712823,0.85749526042807345,-1.7755827619776297,0.0034514567727426926,0.85749526042807345,-1.7759662571746011,-0.0034514567727426926,0.85749526042807345,-1.7771167427655152,0.0038349519697141029,0.857111765231102,-1.7771167427655152,1,1,1,1
2.0380000000000003,0.041299978637695314,-0,9.852738381958007,0.0063915866161901721,-0.012250541014364496,0.014381069886427887,-0.0030679615757712823,0.85749526042807345,-1.7755827619776297,0.0034514567727426926,0.85749526042807345,-1.7759662571746011,-0.0034514567727426926,0.85749526042807345,-1.7771167427655152,0.0038349519697141029,0.857111765231102,-1.7771167427655152,1,1,1,1
2.0390000000000001,-0.1005564697265625,0.0089782562255859375,9.8688992431640621,-0.0026631610900792382,0.0085221154882535628,0.022903185374681449,-0.0030679615757712823,0.85749526042807345,-1.7755827619776297,0.0034514567727426926,0.85749526042807345,-1.7759662571746011,-0.0034514567727426926,0.85749526042807345,-1.7771167427655152,0.0038349519697141029,0.857111765231102,-1.7771167427655152,1,1,1,1
2.04,-0.0143652099609375,-0.055665188598632814,9.942520944213868,0.001597896654047543,-0.0042610577441267814,0.010652644360316953,-0.0030679615757712823,0.85749526042807345,-1.7755827619776297,0.0034514567727426926,0.85749526042807345,-1.7759662571746011,-0.0034514567727426926,0.85749526042807345,-1.7771167427655152,0.0038349519697141029,0.857111765231102,-1.7771167427655152,1,0,0,1
2.0409999999999999,0.1885433807373047,0.05027823486328125,9.8850601043701172,-0.0031957933080950861,-0.024501082028728992,-0.0095873799242852577,-0.0030679615757712823,0.85749526042807345,-1.7755827619776297,0.0034514567727426926,0.85749526042807345,-1.7759662571746011,-0.0034514567727426926,0.85749526042807345,-1.7771167427655152,0.0038349519697141029,0.857111765231102,-1.7771167427655152,1,0,0,1
2.0420000000000003,0.12569558715820311,-0.077213003540039057,9.9101992218017578,0.0063915866161901721,-0.0069242188342060196,0.012250541014364496,-0.0030679615757712823,0.85749526042807345,-1.7755827619776297,0.0034514567727426926,0.85749526042807345,-1.7759662571746011,-0.0034514567727426926,0.85749526042807345,-1.7771167427655152,0.0038349519697141029,0.857111765231102,-1.7771167427655152,1,0,0,1
2.0430000000000001,0.077213003540039057,-0.010773907470703125,9.9676600616455087,-0.011717908796348649,-0.010652644360316953,-0.003728425526110934,-0.0030679615757712823,0.85749526042807345,-1.7755827619776297,0.0034514567727426926,0.85749526042807345,-1.7759662571746011,-0.0034514567727426926,0.85749526042807345,-1.7771167427655152,0.0038349519697141029,0.857111765231102,-1.7771167427655152,1,0,0,1
2.044,-0.044891281127929686,-0,9.9443165954589841,-0.010120012142301106,0.001597896654047543,0.015978966540475429,-0.0030679615757712823,0.85749526042807345,-1.7755827619776297,0.0034514567727426926,0.85749526042807345,-1.7759662571746011,-0.0034514567727426926,0.85749526042807345,-1.7771167427655152,0.0038349519697141029,0.857111765231102,-1.7771167427655152,1,0,0,1
2.0449999999999999,0.16699556579589844,0.05027823486328125,9.9263600830078129,0.0021305288720633907,-0.011717908796348649,0.016511598758491279,-0.0030679615757712823,0.85749526042807345,-1.7755827619776297,0.0034514567727426926,0.85749526042807345,-1.7759662571746011,-0.0034514567727426926,0.85749526042807345,-1.7771167427655152,0.0038349519697141029,0.857111765231102,-1.7771167427655152,1,0,0,1
2.0460000000000003,0.0718260498046875,-0.086191259765625,9.7360210510253911,0.0085221154882535628,-0.015978966540475429,0.0063915866161901721,-0.0030679615757712823,0.85749526042807345,-1.7755827619776297,0.0034514567727426926,0.85749526042807345,-1.7759662571746011,-0.0034514567727426926,0.85749526042807345,-1.7771167427655152,0.0038349519697141029,0.857111765231102,-1.7771167427655152,1,0,0,1
2.0470000000000002,0.19572598571777344,0.012569558715820313,9.7934818908691401,-0.0095873799242852577,0.00053263221801584768,-0.0010652644360316954,-0.0030679615757712823,0.85749526042807345,-1.7755827619776297,0.0034514567727426926,0.85749526042807345,-1.7759662571746011,-0.0034514567727426926,0.85749526042807345,-1.7771167427655152,0.0038349519697141029,0.857111765231102,-1.7771167427655152,1,0,0,1
2.048,0.12928688964843749,-0.02154781494140625,9.3337951721191406,0.014381069886427887,-0.00053263221801584768,-0.001597896654047543,-0.0030679615757712823,0.85749526042807345,-1.7755827619776297,0.0034514567727426926,0.85749526042807345,-1.7759662571746011,-0.0034514567727426926,0.85749526042807345,-1.7771167427655152,0.0038349519697141029,0.857111765231102,-1.7771167427655152,1,0,0,1
2.0489999999999999,0.25318682556152344,0.00718260498046875,9.4864255279541023,0.011185276578332801,-0.0042610577441267814,0.0058589543981743247,-0.0030679615757712823,0.85749526042807345,-1.7755827619776297,0.0034514567727426926,0.85749526042807345,-1.7759662571746011,-0.0034514567727426926,0.85749526042807345,-1.7771167427655152,0.0038349519697141029,0.857111765231102,-1.7771167427655152,1,0,0,1
2.0499999999999998,0.3286041778564453,-0.095169515991210943,9.0662431365966789,0.0021305288720633907,0.0074568510522218679,0.012783173232380344,-0.0030679615757712823,0.85749526042807345,-1.7755827619776297,0.0034514567727426926,0.85749526042807345,-1.7759662571746011,-0.0034514567727426926,0.85749526042807345,-1.7771167427655152,0.0038349519697141029,0.857111765231102,-1.7771167427655152,1,0,0,1
2.0510000000000002,0.33578678283691404,-0.052073886108398436,8.985438830566407,-0.0085221154882535628,-0.017576863194522972,0.0058589543981743247,-0.0030679615757712823,0.85749526042807345,-1.7755827619776297,0.0034514567727426926,0.85749526042807345,-1.7759662571746011,-0.0034514567727426926,0.85749526042807345,-1.7771167427655152,0.0038349519697141029,0.857111765231102,-1.7771167427655152,1,0,0,1
2.052,0.39145197143554689,-0.075417352294921872,8.5778259979248048,0.0026631610900792382,-0.0079894832702377145,0,-0.0030679615757712823,0.85749526042807345,-1.7755827619776297,0.0034514567727426926,0.85749526042807345,-1.7763497523715726,-0.0034514567727426926,0.85749526042807345,-1.7775002379624867,0.0038349519697141029,0.857111765231102,-1.7771167427655152,1,0,0,1
2.0529999999999999,0.32680852661132814,-0.15263035583496093,8.5850086029052726,0.0079894832702377145,-0.029294771990871622,0.0042610577441267814,-0.0030679615757712823,0.85749526042807345,-1.7755827619776297,0.0034514567727426926,0.85749526042807345,-1.7763497523715726,-0.0034514567727426926,0.85749526042807345,-1.7775002379624867,0.0038349519697141029,0.857111765231102,-1.7771167427655152,1,0,0,1
2.0539999999999998,0.46148236999511721,-0.059256491088867186,8.0463132293701172,-0.0031957933080950861,0.0031957933080950861,0.0079894832702377145,-0.0030679615757712823,0.85749526042807345,-1.7755827619776297,0.0034514567727426926,0.85749526042807345,-1.7767332475685438,-0.0034514567727426926,0.85787875562504479,-1.7778837331594581,0.0038349519697141029,0.857111765231102,-1.7771167427655152,1,0,0,1
2.0550000000000002,0.49380409240722656,-0.032321722412109372,8.1648262115478509,0.0063915866161901721,-0.017044230976507126,0.0058589543981743247,-0.0030679615757712823,0.85749526042807345,-1.7755827619776297,0.0034514567727426926,0.85787875562504479,-1.7767332475685438,-0.0034514567727426926,0.85787875562504479,-1.7778837331594581,0.0038349519697141029,0.857111765231102,-1.7771167427655152,1,0,0,1
2.056,0.55485623474121093,0.026934768676757814,7.41244833984375,0.0074568510522218679,-0.029294771990871622,0.025033714246744842,-0.0030679615757712823,0.85749526042807345,-1.7755827619776297,0.0034514567727426926,0.85787875562504479,-1.7771167427655152,-0.0034514567727426926,0.85826225082201624,-1.7782672283564296,0.0038349519697141029,0.857111765231102,-1.7771167427655152,1,0,0,1
2.0569999999999999,0.63206923828125006,-0.14006079711914063,7.6009917205810549,0.0074568510522218679,-0.032490565298966712,0.023968449810713145,-0.0030679615757712823,0.85749526042807345,-1.7755827619776297,0.0034514567727426926,0.85826225082201624,-1.7775002379624867,-0.0034514567727426926,0.85826225082201624,-1.778650723553401,0.0038349519697141029,0.857111765231102,-1.7771167427655152,1,0,0,1
2.0579999999999998,0.67516486816406251,-0.14724340209960937,6.8324529876708988,0.0085221154882535628,-0.042077945223251964,0.021837920938649755,-0.0030679615757712823,0.85749526042807345,-1.7755827619776297,0.0034514567727426926,0.85826225082201624,-1.7778837331594581,-0.0034514567727426926,0.85864574601898769,-1.7790342187503723,0.0038349519697141029,0.85749526042807345,-1.7771167427655152,1,0,0,1
2.0590000000000002,0.70748659057617191,-0.032321722412109372,7.0838441619873045,0.0026631610900792382,-0.023968449810713145,0.018642127630554669,-0.0030679615757712823,0.85749526042807345,-1.7755827619776297,0.0034514567727426926,0.85864574601898769,-1.7782672283564296,-0.0034514567727426926,0.85902924121595903,-1.7794177139473437,0.0038349519697141029,0.85749526042807345,-1.7771167427655152,1,0,0,1
2.0600000000000001,0.83856913146972656,-0.17417817077636719,6.3009402191162112,0.013315805450396193,-0.038882151915156878,0.025033714246744842,-0.0034514567727426926,0.85749526042807345,-1.7755827619776297,0.0034514567727426926,0.85902924121595903,-1.7790342187503723,-0.0034514567727426926,0.85902924121595903,-1.7801847043412866,0.0038349519697141029,0.85749526042807345,-1.7771167427655152,1,0,0,1
2.0609999999999999,0.67157356567382809,-0.1274912384033203,6.4499792724609373,0.011185276578332801,-0.051132692929521377,0.034621094171030098,-0.0034514567727426926,0.85749526042807345,-1.7755827619776297,0.0034514567727426926,0.85941273641293048,-1.7794177139473437,-0.0034514567727426926,0.85941273641293048,-1.7805681995382581,0.0038349519697141029,0.85749526042807345,-1.7771167427655152,1,0,0,1
2.0619999999999998,0.85652564392089847,-0.18136077575683593,5.8322752441406251,-0.0010652644360316954,-0.036218990825077645,0.029294771990871622,-0.0034514567727426926,0.85787875562504479,-1.7755827619776297,0.0030679615757712823,0.85979623160990193,-1.7801847043412866,-0.0034514567727426926,0.86017972680687327,-1.7813351899322007,0.0038349519697141029,0.85749526042807345,-1.7771167427655152,1,0,0,1
2.0630000000000002,0.7721300354003906,-0.10953472595214844,6.1034185821533207,0.017576863194522972,-0.051665325147537224,0.046339002967378751,-0.0034514567727426926,0.85787875562504479,-1.7755827619776297,0.0030679615757712823,0.86056322200384472,-1.7813351899322007,-0.0034514567727426926,0.86056322200384472,-1.7821021803261436,0.0038349519697141029,0.85749526042807345,-1.7771167427655152,1,0,0,1
2.0640000000000001,0.83856913146972656,-0.10235212097167969,5.6185927459716796,0.0085221154882535628,-0.050067428493489684,0.048469531839442137,-0.0034514567727426926,0.85787875562504479,-1.7759662571746011,0.0030679615757712823,0.86094671720081606,-1.7821021803261436,-0.0034514567727426926,0.86094671720081606,-1.7832526659170578,0.0038349519697141029,0.85787875562504479,-1.7775002379624867,1,0,0,1
2.0649999999999999,0.68414312438964842,-0.26575638427734377,5.9436056213378903,0.012250541014364496,-0.049002164057457984,0.058589543981743243,-0.0034514567727426926,0.85826225082201624,-1.7759662571746011,0.0030679615757712823,0.86171370759475896,-1.7832526659170578,-0.0030679615757712823,0.86171370759475896,-1.7840196563110007,0.0038349519697141029,0.85787875562504479,-1.7775002379624867,1,0,0,1
2.0659999999999998,0.71287354431152339,-0.26396073303222656,5.589862326049805,0.020772656502618059,-0.056459015109679857,0.06018744063579079,-0.0034514567727426926,0.85826225082201624,-1.7759662571746011,0.0030679615757712823,0.8628641931856732,-1.7847866467049436,-0.0030679615757712823,0.86248069798870175,-1.7851701419019148,0.0038349519697141029,0.85787875562504479,-1.7775002379624867,1,0,0,1
2.0670000000000002,0.74878656921386721,-0.17776947326660156,5.8412535003662107,0.003728425526110934,-0.05326322180158477,0.052730589583568917,-0.0034514567727426926,0.85826225082201624,-1.7759662571746011,0.002684466378799872,0.86363118357961599,-1.7859371322958577,-0.0030679615757712823,0.86324768838264454,-1.7867041226898006,0.0038349519697141029,0.85787875562504479,-1.7778837331594581,1,0,0,1
2.0680000000000001,0.61231707458496099,-0.22266075439453126,5.4444145751953128,0.015446334322459582,-0.061252705071822483,0.077231671612297909,-0.0034514567727426926,0.85864574601898769,-1.7763497523715726,0.002684466378799872,0.86478166917053023,-1.7874711130837433,-0.0030679615757712823,0.86439817397355878,-1.7878546082807147,0.0042184471666855128,0.85826225082201624,-1.7778837331594581,1,0,0,1
2.069,0.54408232727050776,-0.29089550170898437,5.7209448669433591,0.013848437668412039,-0.058056911763727397,0.069774820560076042,-0.0034514567727426926,0.85864574601898769,-1.7763497523715726,0.0023009711818284618,0.86631564995841581,-1.7893885890686003,-0.0030679615757712823,0.86554865956447302,-1.7893885890686003,0.0042184471666855128,0.85826225082201624,-1.7778837331594581,1,0,0,1
2.0699999999999998,0.44711716003417967,-0.34296938781738279,5.4533928314208984,0.016511598758491279,-0.053795854019600617,0.072437981650155289,-0.0038349519697141029,0.85902924121595903,-1.7767332475685438,0.0023009711818284618,0.86746613554933005,-1.7913060650534576,-0.002684466378799872,0.86669914515538726,-1.7913060650534576,0.0042184471666855128,0.85864574601898769,-1.7782672283564296,1,0,0,1
2.0710000000000002,0.23343466186523437,-0.12389993591308594,5.7047840057373049,0.015446334322459582,-0.058589543981743243,0.088949580408646561,-0.0038349519697141029,0.85902924121595903,-1.7767332475685438,0.0019174759848570515,0.86900011633721574,-1.7932235410383146,-0.002684466378799872,0.8678496307463015,-1.7932235410383146,0.0042184471666855128,0.85864574601898769,-1.7782672283564296,1,0,0,1
2.0720000000000001,0.33039982910156251,-0.2621650817871094,5.6545057708740236,0.020772656502618059,-0.067111659469996809,0.071905349432139443,-0.0038349519697141029,0.85941273641293048,-1.7771167427655152,0.0015339807878856412,0.87091759232207278,-1.7955245122201431,-0.002684466378799872,0.86938361153418708,-1.7951410170231716,0.0042184471666855128,0.85864574601898769,-1.778650723553401,1,0,0,1
2.073,0.15801730957031251,-0.22086510314941407,5.9202621551513674,0.015978966540475429,-0.06551376281594927,0.091612741498725794,-0.0038349519697141029,0.85979623160990193,-1.7771167427655152,0.0011504855909142309,0.87283506830692981,-1.7982089785989428,-0.0023009711818284618,0.87091759232207278,-1.7970584930080287,0.0042184471666855128,0.85902924121595903,-1.7790342187503723,1,0,0,1
2.0739999999999998,0.17238251953125,-0.19931728820800781,5.7550622406005862,0.031425300862935011,-0.048469531839442137,0.10120012142301106,-0.0038349519697141029,0.85979623160990193,-1.7775002379624867,0.0011504855909142309,0.87475254429178684,-1.8008934449777427,-0.0019174759848570515,0.87283506830692981,-1.7993594641898571,0.0042184471666855128,0.85902924121595903,-1.7790342187503723,1,0,0,1
2.0750000000000002,0.12928688964843749,-0.26575638427734377,6.0710968597412114,0.018642127630554669,-0.041545313005236117,0.11185276578332801,-0.0042184471666855128,0.86017972680687327,-1.7775002379624867,0.00038349519697141029,0.87667002027664398,-1.8035779113565427,-0.0015339807878856412,0.87475254429178684,-1.8020439305686569,0.0042184471666855128,0.85941273641293048,-1.7794177139473437,1,0,0,1
2.0760000000000001,0.080804306030273443,-0.31783027038574219,5.9795186462402343,0.028762139772855775,-0.031957933080950858,0.11398329465539141,-0.0042184471666855128,0.86056322200384472,-1.7778837331594581,0,0.87897099145847235,-1.8070293681292853,-0.0015339807878856412,0.87667002027664398,-1.8047283969474568,0.0042184471666855128,0.85941273641293048,-1.7798012091443152,1,0,0,1
2.077,-0.026934768676757814,-0.22086510314941407,6.2183402618408206,0.021305288720633905,-0.037284255261109338,0.13156015784991437,-0.0042184471666855128,0.86056322200384472,-1.7782672283564296,-0.00038349519697141029,0.88127196264030083,-1.8100973297050567,-0.0011504855909142309,0.87897099145847235,-1.8077963585232282,0.0046019423636569235,0.85979623160990193,-1.7798012091443152,1,0,0,1
2.0779999999999998,-0.084395608520507814,-0.20290859069824219,6.2183402618408206,0.048469531839442137,-0.030360036426903318,0.13369068672197776,-0.0042184471666855128,0.86094671720081606,-1.778650723553401,-0.00076699039394282058,0.88395642901910076,-1.8135487864777993,-0.00076699039394282058,0.88088846744332949,-1.8108643200989993,0.0046019423636569235,0.85979623160990193,-1.7801847043412866,1,0,0,1
2.0790000000000002,-0.1849520782470703,-0.25318682556152344,6.5523313934326168,0.056991647327695703,-0.028229507554839928,0.13262542228594607,-0.0046019423636569235,0.86133021239778751,-1.7790342187503723,-0.0011504855909142309,0.88625740020092914,-1.8173837384475133,-0.00038349519697141029,0.88357293382212931,-1.8139322816747707,0.0046019423636569235,0.86017972680687327,-1.7805681995382581,1,0,0,1
2.0800000000000001,-0.20290859069824219,-0.23882161560058593,6.4140662475585941,0.043143209659283664,-0.039414784133172731,0.1464738599543581,-0.0046019423636569235,0.86171370759475896,-1.7790342187503723,-0.0019174759848570515,0.88894186657972907,-1.8212186904172274,0.00038349519697141029,0.8858739050039578,-1.8173837384475133,0.0046019423636569235,0.86017972680687327,-1.7809516947352293,1,0,0,1
2.081,-0.39145197143554689,-0.2424129180908203,6.7821747528076175,0.043675841877299511,-0.014381069886427887,0.14434333108229472,-0.0046019423636569235,0.86171370759475896,-1.7794177139473437,-0.0023009711818284618,0.89200982815550034,-1.8254371375839129,0.00076699039394282058,0.88855837138275762,-1.8212186904172274,0.0046019423636569235,0.86056322200384472,-1.7813351899322007,1,0,0,1
2.0819999999999999,-0.35733459777832033,-0.17776947326660156,6.6798226318359379,0.042610577441267811,-0.012783173232380344,0.14860438882642149,-0.0049854375606283342,0.8620972027917303,-1.7798012091443152,-0.002684466378799872,0.89469429453430016,-1.8296555847505984,0.0011504855909142309,0.89124283776155755,-1.8250536423869417,0.0046019423636569235,0.86056322200384472,-1.7817186851291722,1,0,0,1
2.0830000000000002,-0.50457799987792973,-0.23523031311035156,6.999448553466797,0.041012680787220271,-0.012250541014364496,0.14860438882642149,-0.0049854375606283342,0.86248069798870175,-1.7801847043412866,-0.0034514567727426926,0.89776225611007154,-1.8342575271142554,0.0015339807878856412,0.89392730414035737,-1.8292720895536272,0.0049854375606283342,0.86094671720081606,-1.7821021803261436,1,0,0,1
2.0840000000000001,-0.4848258361816406,-0.10414777221679687,6.999448553466797,0.042610577441267811,-0.003728425526110934,0.15765913653269092,-0.0049854375606283342,0.8628641931856732,-1.7805681995382581,-0.0038349519697141029,0.90083021768584282,-1.8388594694779123,0.0023009711818284618,0.8966117705191573,-1.8334905367203127,0.0049854375606283342,0.86094671720081606,-1.7824856755231151,1,0,0,1
2.085,-0.66798226318359377,-0.052073886108398436,7.3585788024902348,0.025033714246744842,-0.0063915866161901721,0.16245282649483353,-0.0053689327575997441,0.86324768838264454,-1.7809516947352293,-0.0042184471666855128,0.90389817926161409,-1.8438449070385408,0.002684466378799872,0.89967973209492857,-1.8377089838869982,0.0049854375606283342,0.86133021239778751,-1.7828691707200865,1,0,0,1
2.0859999999999999,-0.76853873291015629,-0.075417352294921872,7.337030987548828,0.055393750673648157,0.011717908796348649,0.15499597544261168,-0.0053689327575997441,0.86324768838264454,-1.7813351899322007,-0.0049854375606283342,0.90696614083738536,-1.848830344599169,0.0034514567727426926,0.90274769367069985,-1.842310926250655,0.0049854375606283342,0.86133021239778751,-1.7836361611140292,1,0,0,1
2.0870000000000002,-0.69312138061523443,-0.11312602844238281,7.6602482116699218,0.049534796275473837,-0.0047936899621426289,0.16884441311102372,-0.0053689327575997441,0.86363118357961599,-1.7817186851291722,-0.0053689327575997441,0.91041759761012808,-1.8538157821597974,0.0038349519697141029,0.90581565524647112,-1.8472963638112834,0.0053689327575997441,0.86133021239778751,-1.7840196563110007,1,0,0,1
2.0880000000000001,-0.8547299926757812,-0.098760818481445314,7.7033438415527344,0.030892668644919165,0.010120012142301106,0.1821602185614199,-0.005752427954571154,0.86401467877658744,-1.7824856755231151,-0.005752427954571154,0.91348555918589935,-1.859184714917397,0.0042184471666855128,0.90926711201921384,-1.8522818013719118,0.0053689327575997441,0.86171370759475896,-1.7844031515079721,1,0,0,1
2.089,-0.92655604248046874,-0.010773907470703125,8.1648262115478509,0.05060006071150553,0.012783173232380344,0.17470336750919804,-0.005752427954571154,0.86439817397355878,-1.7828691707200865,-0.0065194183485139754,0.91693701595864197,-1.8645536476749969,0.0049854375606283342,0.91233507359498511,-1.85726723893254,0.0053689327575997441,0.86171370759475896,-1.7847866467049436,1,0,0,1
2.0899999999999999,-0.93014734497070317,-0.053869537353515629,8.0947958129882807,0.05912217619975909,0.029827404208887472,0.1810949541253882,-0.0061359231515425647,0.86439817397355878,-1.7832526659170578,-0.0069029135454853853,0.92038847273138469,-1.8699225804325965,0.0053689327575997441,0.91578653036772772,-1.8626361716901398,0.0053689327575997441,0.8620972027917303,-1.7855536370988863,1,0,0,1
2.0910000000000002,-1.1438298431396485,-0.03591302490234375,8.4162173858642575,0.039414784133172731,0.019707392066586366,0.18748654074157839,-0.0061359231515425647,0.86478166917053023,-1.7836361611140292,-0.0072864087424567951,0.92383992950412741,-1.8756750083871678,0.0061359231515425647,0.91885449194349911,-1.8680051044477395,0.0053689327575997441,0.8620972027917303,-1.7859371322958577,1,0,0,1
2.0920000000000001,-1.0504559783935548,0.012569558715820313,8.4162173858642575,0.025033714246744842,0.027164243118808232,0.20772656502618059,-0.0061359231515425647,0.86516516436750157,-1.7840196563110007,-0.0076699039394282058,0.92729138627687013,-1.8810439411447675,0.0065194183485139754,0.92230594871624172,-1.8733740372053393,0.005752427954571154,0.86248069798870175,-1.7867041226898006,1,0,0,1
2.093,-1.0217255584716798,-0.0017956512451171875,8.9028388732910155,0.037284255261109338,0.036751623043093491,0.19441075957578441,-0.0065194183485139754,0.86554865956447302,-1.7847866467049436,-0.0080533991363996166,0.93074284304961274,-1.8867963690993386,0.0069029135454853853,0.92575740548898444,-1.8791264651599104,0.005752427954571154,0.86248069798870175,-1.7870876178867721,1,0,0,1
2.0939999999999999,-1.1635820068359375,0.075417352294921872,8.7879171936035156,0.037816887479125184,0.055926382891664003,0.19600865622983193,-0.0065194183485139754,0.86593215476144447,-1.7851701419019148,-0.0084368943333710256,0.93419429982235547,-1.8929322922508811,0.0076699039394282058,0.92920886226172716,-1.8848788931144815,0.005752427954571154,0.86248069798870175,-1.7874711130837433,1,0,0,1
2.0950000000000002,-1.2461819641113281,0.053869537353515629,9.0967692077636713,0.031957933080950858,0.052730589583568917,0.20240024284602212,-0.0069029135454853853,0.86593215476144447,-1.7855536370988863,-0.0088203895303424363,0.93764575659509819,-1.8986847202054524,0.0080533991363996166,0.93266031903446978,-1.8906313210690529,0.0061359231515425647,0.8628641931856732,-1.7882381034776862,1,0,0,1
2.0960000000000001,-1.2461819641113281,0.12210428466796874,9.157821350097656,0.050067428493489684,0.064448498379917563,0.19494339179380024,-0.0069029135454853853,0.86631564995841581,-1.7859371322958577,-0.009203884727313847,0.94109721336784091,-1.9044371481600235,0.0084368943333710256,0.93649527100418395,-1.8967672442205954,0.0061359231515425647,0.8628641931856732,-1.7886215986746576,1,0,0,1
2.097,-1.2479776153564452,0.1885433807373047,9.477447271728515,0.038882151915156878,0.068176923906028503,0.20612866837213306,-0.0069029135454853853,0.86669914515538726,-1.7867041226898006,-0.0095873799242852577,0.94454867014058352,-1.9105730713115661,0.009203884727313847,0.93994672777692667,-1.9025196721751665,0.0061359231515425647,0.8628641931856732,-1.7893885890686003,1,0,0,1
2.0979999999999999,-1.3180080139160155,0.21906945190429689,9.4936081329345701,0.033023197516982558,0.058589543981743243,0.20612866837213306,-0.0072864087424567951,0.86669914515538726,-1.7870876178867721,-0.0099708751212566685,0.94800012691332625,-1.9163254992661372,0.0095873799242852577,0.94339818454966928,-1.908655595326709,0.0065194183485139754,0.86324768838264454,-1.7897720842655718,1,0,0,1
2.0990000000000002,-1.3377601776123047,0.15083470458984374,9.8258036132812503,0.023435817592697299,0.062850601725870023,0.20772656502618059,-0.0072864087424567951,0.86708264035235871,-1.7878546082807147,-0.010354370318228077,0.95145158368606897,-1.9224614224176797,0.0099708751212566685,0.94723313651938346,-1.9147915184782516,0.0065194183485139754,0.86324768838264454,-1.7905390746595147,1,0,0,1
2.1000000000000001,-1.2749123840332031,0.21188684692382811,9.8958340118408206,0.024501082028728992,0.087351683754599022,0.22849922152879865,-0.0076699039394282058,0.86746613554933005,-1.7882381034776862,-0.010354370318228077,0.95490304045881158,-1.928213850372251,0.010354370318228077,0.95068459329212607,-1.9209274416297941,0.0065194183485139754,0.86324768838264454,-1.7909225698564861,1,0,0,1
2.101,-1.3862427612304689,0.20649989318847656,10.307038146972657,0.012250541014364496,0.072970613868171136,0.20666130059014889,-0.0076699039394282058,0.86746613554933005,-1.7886215986746576,-0.010737865515199488,0.9583544972315543,-1.9343497735237936,0.010737865515199488,0.95413605006486879,-1.9270633647813367,0.0069029135454853853,0.86324768838264454,-1.7913060650534576,1,0,0,1
2.1019999999999999,-1.4329296936035156,0.29448680419921874,10.454281549072265,0.012250541014364496,0.086819051536583175,0.23648870479903636,-0.0080533991363996166,0.8678496307463015,-1.7893885890686003,-0.010737865515199488,0.96180595400429703,-1.9401022014783647,0.011121360712170899,0.95758750683761151,-1.9335827831298507,0.0069029135454853853,0.86324768838264454,-1.7920730554474003,1,0,0,1
2.1030000000000002,-1.359307992553711,0.31603461914062503,10.727220538330078,0.0031957933080950861,0.10333065029507445,0.21891184160451341,-0.0080533991363996166,0.86823312594327295,-1.7897720842655718,-0.011121360712170899,0.96525741077703975,-1.9462381246299072,0.011504855909142308,0.96142245880732558,-1.9397187062813932,0.0072864087424567951,0.86324768838264454,-1.7924565506443717,1,0,0,1
2.1040000000000001,-1.4778209747314452,0.32501287536621093,10.741585748291016,-0.0053263221801584763,0.088949580408646561,0.23062975040086203,-0.0080533991363996166,0.86823312594327295,-1.7905390746595147,-0.011121360712170899,0.96870886754978236,-1.9519905525844783,0.011888351106113719,0.9648739155800683,-1.9458546294329357,0.0072864087424567951,0.86324768838264454,-1.7932235410383146,1,0,0,1
2.105,-1.5083470458984376,0.30705636291503907,10.99477257385254,-0.0042610577441267814,0.098536960332931814,0.23382554370895714,-0.0084368943333710256,0.86861662114024429,-1.7909225698564861,-0.011504855909142308,0.97177682912555363,-1.9577429805390496,0.011888351106113719,0.96832537235281102,-1.9519905525844783,0.0072864087424567951,0.86363118357961599,-1.7936070362352858,1,0,0,1
2.1059999999999999,-1.4724340209960938,0.3860650177001953,11.063007321166992,-0.0021305288720633907,0.10865697247523293,0.23595607258102053,-0.0084368943333710256,0.86900011633721574,-1.7916895602504288,-0.011504855909142308,0.97522828589829635,-1.9634954084936207,0.012271846303085129,0.97177682912555363,-1.9581264757360211,0.0076699039394282058,0.86363118357961599,-1.7943740266292287,1,0,0,1
2.1070000000000002,-1.628655679321289,0.38247371520996093,11.343128915405273,-0.0085221154882535628,0.093743270370789195,0.24820661359538501,-0.0088203895303424363,0.86900011633721574,-1.7920730554474003,-0.011504855909142308,0.97829624747406763,-1.9692478364481918,0.012271846303085129,0.97522828589829635,-1.9642623988875636,0.0076699039394282058,0.86363118357961599,-1.7947575218262002,1,0,0,1
2.1080000000000001,-1.6196774230957032,0.50457799987792973,11.533467947387695,-0.0079894832702377145,0.1150485590914231,0.2492718780314167,-0.0088203895303424363,0.86938361153418708,-1.7928400458413432,-0.011504855909142308,0.9813642090498389,-1.9746167692057917,0.01265534150005654,0.97867974267103908,-1.9703983220391061,0.0080533991363996166,0.86324768838264454,-1.7951410170231716,1,0,0,1
2.109,-1.5855600494384765,0.47225627746582033,11.686098303222657,-0.026098978682776535,0.096939063678884274,0.24767398137736918,-0.0088203895303424363,0.86938361153418708,-1.7932235410383146,-0.011504855909142308,0.98481566582258162,-1.9803691971603627,0.01265534150005654,0.9821311994437818,-1.9765342451906487,0.0080533991363996166,0.86324768838264454,-1.7959080074171143,1,0,0,1
2.1099999999999999,-1.5119383483886719,0.4758475799560547,11.70944176940918,-0.021837920938649755,0.11930961683554989,0.25513083242959106,-0.009203884727313847,0.86976710673115853,-1.7939905314322573,-0.011504855909142308,0.98750013220138155,-1.9857381299179624,0.013038836697027951,0.98519916101955307,-1.9822866731452198,0.0084368943333710256,0.86324768838264454,-1.7962915026140858,1,0,0,1
2.1110000000000002,-1.589151351928711,0.36631285400390623,12.025476388549805,-0.031957933080950858,0.10812434025721708,0.24288029141522655,-0.009203884727313847,0.86976710673115853,-1.7943740266292287,-0.011504855909142308,0.99056809377715282,-1.9907235674785908,0.013038836697027951,0.98865061779229568,-1.9884225962967623,0.0084368943333710256,0.86324768838264454,-1.7966749978110572,1,0,0,1
2.1120000000000001,-1.5873557006835937,0.44711716003417967,12.318167541503906,-0.033555829734998405,0.11398329465539141,0.2545982002115752,-0.009203884727313847,0.87015060192812999,-1.7951410170231716,-0.011504855909142308,0.9936360553529241,-1.9960925002361907,0.013038836697027951,0.99171857936806707,-1.9941750242513334,0.0088203895303424363,0.86324768838264454,-1.7970584930080287,1,0,0,1
2.113,-1.7040730316162109,0.5333084197998047,12.388197940063476,-0.061252705071822483,0.13209279006793023,0.26312031569982874,-0.0095873799242852577,0.87015060192812999,-1.7955245122201431,-0.011504855909142308,0.99632052173172392,-2.0010779377968189,0.01342233189399936,0.99478654094383834,-1.9999274522059047,0.0088203895303424363,0.8628641931856732,-1.7978254834019713,1,0,0,1
2.1139999999999999,-1.7238251953125001,0.51535190734863279,12.61624564819336,-0.053795854019600617,0.12463593901570835,0.24447818806927407,-0.0095873799242852577,0.87053409712510132,-1.7962915026140858,-0.011504855909142308,0.99900498811052385,-2.0060633753574471,0.01342233189399936,0.99785450251960961,-2.0052963849635046,0.009203884727313847,0.8628641931856732,-1.7982089785989428,1,0,0,1
2.1150000000000002,-1.7130512878417969,0.49021278991699219,12.671910836791993,-0.076166407176266215,0.13475595115800945,0.25832662573768611,-0.0095873799242852577,0.87053409712510132,-1.7966749978110572,-0.011121360712170899,1.0016894544893238,-2.010665317721104,0.01342233189399936,1.0009224640953809,-2.0110488129180757,0.0095873799242852577,0.8628641931856732,-1.7985924737959142,1,0,0,1
2.1160000000000001,-1.6519991455078125,0.51894320983886721,12.840702053833008,-0.092678005934757501,0.12516857123372421,0.2604571546097495,-0.0099708751212566685,0.87091759232207278,-1.7974419882050001,-0.011121360712170899,1.003990425671152,-2.015267260084761,0.01342233189399936,1.003990425671152,-2.0160342504787039,0.0095873799242852577,0.86248069798870175,-1.7989759689928857,1,0,0,1
2.117,-1.7525556152343751,0.42556934509277344,12.957419384765625,-0.094808534806820888,0.13102752563189854,0.25513083242959106,-0.0099708751212566685,0.87091759232207278,-1.7978254834019713,-0.011121360712170899,1.006674892049952,-2.0194857072514467,0.01342233189399936,1.006674892049952,-2.0214031832363037,0.0099708751212566685,0.86248069798870175,-1.7993594641898571,1,0,0,1
2.1179999999999999,-1.5945383056640625,0.5243301635742188,13.070545413208007,-0.091080109280709948,0.14913702104443735,0.27110979897006648,-0.0099708751212566685,0.87091759232207278,-1.7985924737959142,-0.010737865515199488,1.0089758632317805,-2.023704154418132,0.01342233189399936,1.0097428536257234,-2.0263886207969319,0.010354370318228077,0.8620972027917303,-1.7997429593868286,1,0,0,1
2.1190000000000002,-1.7489643127441405,0.5099649536132812,13.070545413208007,-0.092145373716741655,0.13582121559404114,0.2689792700980031,-0.010354370318228077,0.87130108751904423,-1.7989759689928857,-0.010354370318228077,1.0112768344136089,-2.0275391063878461,0.01342233189399936,1.0124273200045231,-2.0313740583575601,0.010354370318228077,0.8620972027917303,-1.8001264545837998,1,0,0,1
2.1200000000000001,-1.5783774444580079,0.57640404968261716,13.233949676513673,-0.10705907582118539,0.14434333108229472,0.27110979897006648,-0.010354370318228077,0.87130108751904423,-1.7993594641898571,-0.010354370318228077,1.013194310398466,-2.0313740583575601,0.01342233189399936,1.0147282911863515,-2.0363594959181888,0.010737865515199488,0.86171370759475896,-1.8001264545837998,1,0,0,1
2.121,-1.5855600494384765,0.57819970092773443,13.321936587524414,-0.11930961683554989,0.14221280221023133,0.28495823663847852,-0.010354370318228077,0.87130108751904423,-1.8001264545837998,-0.0099708751212566685,1.0154952815802945,-2.0352090103272746,0.01342233189399936,1.0174127575651515,-2.0409614382818457,0.011121360712170899,0.86133021239778751,-1.8005099497807713,1,0,0,1
2.1219999999999999,-1.5945383056640625,0.63566054077148437,13.526640829467773,-0.12037488127158158,0.15712650431467506,0.28602350107451019,-0.010354370318228077,0.87130108751904423,-1.8005099497807713,-0.0095873799242852577,1.0174127575651515,-2.038660467100017,0.01342233189399936,1.0200972239439514,-2.045179885448531,0.011121360712170899,0.86094671720081606,-1.8008934449777427,1,0,0,1
2.1230000000000002,-1.5963339569091797,0.41479543762207033,13.357849612426758,-0.11664645574547064,0.14008227333816795,0.27909928224030417,-0.010737865515199488,0.87168458271601557,-1.8012769401747142,-0.009203884727313847,1.0193302335500085,-2.0417284286757882,0.013038836697027951,1.0223981951257799,-2.049781827812188,0.011504855909142308,0.86094671720081606,-1.8008934449777427,1,0,0,1
2.1240000000000001,-1.646612191772461,0.52971711730957027,13.628992950439454,-0.12783173232380343,0.14913702104443735,0.28708876551054191,-0.010737865515199488,0.87168458271601557,-1.8016604353716856,-0.009203884727313847,1.0208642143378941,-2.0447963902515598,0.013038836697027951,1.0246991663076084,-2.053616779781902,0.011888351106113719,0.86056322200384472,-1.8012769401747142,1,0,0,1
2.125,-1.6250643768310546,0.58717795715332033,13.623605996704102,-0.13369068672197776,0.16405072314888108,0.29720877765284298,-0.010737865515199488,0.87168458271601557,-1.8020439305686569,-0.0088203895303424363,1.0223981951257799,-2.0474808566303597,0.013038836697027951,1.0266166422924654,-2.0578352269485878,0.012271846303085129,0.86017972680687327,-1.8016604353716856,1,0,0,1
2.1259999999999999,-1.5658078857421875,0.63566054077148437,13.716979861450195,-0.15286544657054829,0.16032229762277014,0.28975192660062116,-0.010737865515199488,0.87168458271601557,-1.8024274257656283,-0.0084368943333710256,1.0239321759136655,-2.0501653230091592,0.01265534150005654,1.0289176134742939,-2.0612866837213302,0.01265534150005654,0.85979623160990193,-1.8016604353716856,1,0,0,1
2.1270000000000002,-1.6591817504882813,0.58717795715332033,13.66311032409668,-0.15925703318673845,0.14008227333816795,0.29614351321681132,-0.011121360712170899,0.87168458271601557,-1.8031944161595712,-0.0080533991363996166,1.0254661567015511,-2.0524662941909879,0.01265534150005654,1.0308350894591509,-2.064738140494073,0.01265534150005654,0.85941273641293048,-1.8020439305686569,1,0,0,1
2.1280000000000001,-1.6250643768310546,0.6248866333007812,13.830105889892579,-0.160854929840786,0.15393071100657998,0.30892668644919163,-0.011121360712170899,0.87168458271601557,-1.8035779113565427,-0.0076699039394282058,1.0266166422924654,-2.0543837701758449,0.012271846303085129,1.032752565444008,-2.0681895972668158,0.013038836697027951,0.85902924121595903,-1.8020439305686569,1,0,0,1
2.129,-1.4993687896728516,0.61949967956542973,13.708001605224609,-0.18162758634340406,0.14061490555618378,0.29667614543482718,-0.011121360712170899,0.87168458271601557,-1.8039614065535141,-0.0072864087424567951,1.0277671278833795,-2.056301246160702,0.012271846303085129,1.034670041428865,-2.071257558842587,0.01342233189399936,0.85864574601898769,-1.8020439305686569,1,0,0,1
2.1299999999999999,-1.5029600921630859,0.67516486816406251,13.889362380981446,-0.17949705747134068,0.15819176875070676,0.29454561656276379,-0.011121360712170899,0.87168458271601557,-1.8043449017504853,-0.0069029135454853853,1.0289176134742939,-2.0578352269485878,0.011888351106113719,1.0362040222167506,-2.0743255204183582,0.013805827090970771,0.85826225082201624,-1.8024274257656283,1,0,0,1
2.1310000000000002,-1.398812319946289,0.66259530944824219,13.611036437988281,-0.18801917295959422,0.15872440096872262,0.30253509983300148,-0.011504855909142308,0.87168458271601557,-1.8047283969474568,-0.0061359231515425647,1.0296846038682366,-2.0593692077364731,0.011888351106113719,1.0377380030046361,-2.0766264916001869,0.014189322287942181,0.85749526042807345,-1.8024274257656283,1,0,0,1
2.1320000000000001,-1.542464419555664,0.66977791442871093,13.896544985961913,-0.20346550728205381,0.17044230976507124,0.31105721532125502,-0.011504855909142308,0.87168458271601557,-1.8051118921444282,-0.005752427954571154,1.0308350894591509,-2.0605196933273877,0.011504855909142308,1.0392719837925219,-2.0793109579789868,0.01457281748491359,0.857111765231102,-1.8024274257656283,1,0,0,1
2.133,-1.4239514373779296,0.71646484680175782,13.690045092773438,-0.18908443739562592,0.16671388423896033,0.30732878979514411,-0.011504855909142308,0.87130108751904423,-1.8054953873413997,-0.0053689327575997441,1.0312185846561224,-2.0616701789183018,0.011504855909142308,1.0404224693834361,-2.0816119291608151,0.014956312681885001,0.85672827003413055,-1.8024274257656283,1,0,0,1
2.1339999999999999,-1.4616601135253906,0.69491703186035159,13.849858053588868,-0.20453077171808551,0.15393071100657998,0.30945931866720749,-0.011504855909142308,0.87130108751904423,-1.8054953873413997,-0.0049854375606283342,1.0319855750500651,-2.0620536741152731,0.011121360712170899,1.0419564501713217,-2.0835294051456721,0.015339807878856412,0.85634477483715921,-1.8024274257656283,1,0,0,1
2.1350000000000002,-1.3772645050048828,0.6248866333007812,13.708001605224609,-0.20772656502618059,0.17363810307316635,0.32330775633561953,-0.011504855909142308,0.87130108751904423,-1.8058788825383711,-0.0046019423636569235,1.0323690702470365,-2.062820664509216,0.010737865515199488,1.043106935762236,-2.0850633859335579,0.015339807878856412,0.85557778444321642,-1.8028109209625998,1,0,0,1
2.1360000000000001,-1.4670470672607423,0.66618661193847661,13.923479754638672,-0.21518341607840247,0.14860438882642149,0.30732878979514411,-0.011504855909142308,0.87130108751904423,-1.8062623777353424,-0.0042184471666855128,1.032752565444008,-2.062820664509216,0.010737865515199488,1.0438739261561789,-2.0865973667214432,0.015723303075827821,0.85519428924624497,-1.8028109209625998,1,0,0,1
2.137,-1.2892775939941405,0.61949967956542973,13.623605996704102,-0.22210763491260849,0.17044230976507124,0.32330775633561953,-0.011888351106113719,0.87091759232207278,-1.8062623777353424,-0.0034514567727426926,1.0331360606409794,-2.062820664509216,0.010354370318228077,1.045024411747093,-2.088131347509329,0.016106798272799233,0.85481079404927351,-1.8028109209625998,1,0,0,1
2.1379999999999999,-1.3162123626708984,0.66079965820312503,13.860631961059571,-0.2055960361541172,0.1464738599543581,0.31052458310323922,-0.011888351106113719,0.87091759232207278,-1.8066458729323138,-0.0030679615757712823,1.0335195558379506,-2.0624371693122447,0.010354370318228077,1.0457914021410359,-2.088898337903272,0.016490293469770642,0.85404380365533072,-1.8028109209625998,1,0,0,1
2.1390000000000002,-1.2084732879638671,0.65541270446777344,13.587692971801758,-0.2199771060405451,0.15712650431467506,0.32490565298966706,-0.011888351106113719,0.87053409712510132,-1.8066458729323138,-0.002684466378799872,1.0335195558379506,-2.0620536741152731,0.0099708751212566685,1.0465583925349786,-2.0900488234941861,0.016873788666742051,0.85366030845835927,-1.8028109209625998,1,0,0,1
2.1400000000000001,-1.2659341278076173,0.44891281127929689,13.799579818725586,-0.21092235833427567,0.14061490555618378,0.32064459524554029,-0.011888351106113719,0.87053409712510132,-1.8070293681292853,-0.0023009711818284618,1.0331360606409794,-2.0612866837213302,0.0095873799242852577,1.0469418877319501,-2.0904323186911573,0.017257283863713464,0.85289331806441648,-1.8024274257656283,1,0,0,1
2.141,-1.1456254943847657,0.56024318847656251,13.492523455810547,-0.22210763491260849,0.14966965326245318,0.32810144629776217,-0.011888351106113719,0.87015060192812999,-1.8070293681292853,-0.0019174759848570515,1.0331360606409794,-2.060136198130416,0.0095873799242852577,1.0473253829289215,-2.090815813888129,0.017640779060684873,0.85250982286744503,-1.8024274257656283,1,0,0,1
2.1419999999999999,-1.2264298004150391,0.49919104614257814,13.628992950439454,-0.23595607258102053,0.16831178089300786,0.31478564084736599,-0.011888351106113719,0.87015060192812999,-1.8074128633262567,-0.0015339807878856412,1.032752565444008,-2.0589857125395019,0.009203884727313847,1.047708878125893,-2.0911993090851002,0.018024274257656285,0.85174283247350224,-1.8024274257656283,1,0,0,1
2.1430000000000002,-1.1905167755126953,0.53510407104492186,13.51586692199707,-0.23808660145308391,0.13475595115800945,0.32597091742569878,-0.012271846303085129,0.86976710673115853,-1.8074128633262567,-0.0011504855909142309,1.0323690702470365,-2.0574517317516161,0.0088203895303424363,1.0480923733228644,-2.090815813888129,0.018407769454627694,0.85097584207955945,-1.8024274257656283,1,0,0,1
2.1440000000000001,-1.1851298217773438,0.55126493225097661,13.567940808105469,-0.23915186588911561,0.15446334322459582,0.33396040069593647,-0.012271846303085129,0.86976710673115853,-1.8074128633262567,-0.00076699039394282058,1.0316020798530936,-2.0555342557667591,0.0088203895303424363,1.0484758685198357,-2.0904323186911573,0.018791264651599103,0.850592346882588,-1.8020439305686569,1,0,0,1
2.145,-1.1366472381591797,0.689530078125,13.476362594604492,-0.22583606043871943,0.1565938720966592,0.31904669859149276,-0.012271846303085129,0.86938361153418708,-1.8074128633262567,-0,1.0308350894591509,-2.053616779781902,0.0084368943333710256,1.0484758685198357,-2.0900488234941861,0.019174759848570515,0.84982535648864521,-1.8020439305686569,1,0,0,1
2.1459999999999999,-1.0971429107666015,0.59615621337890623,13.539210388183594,-0.23329291149094128,0.14807175660840566,0.32437302077165125,-0.012271846303085129,0.86900011633721574,-1.8077963585232282,0.00038349519697141029,1.030068099065208,-2.0513158086000738,0.0084368943333710256,1.0484758685198357,-2.088898337903272,0.019558255045541924,0.84905836609470242,-1.8020439305686569,1,0,0,1
2.1470000000000002,-1.0881646545410155,0.54587797851562503,13.253701840209962,-0.24447818806927407,0.15233281435253243,0.33502566513196819,-0.01265534150005654,0.86900011633721574,-1.8077963585232282,0.00076699039394282058,1.0293011086712651,-2.0486313422212739,0.0080533991363996166,1.0480923733228644,-2.0877478523123578,0.019941750242513337,0.84867487089773097,-1.8016604353716856,1,0,0,1
2.1480000000000001,-1.0845733520507812,0.54049102478027344,13.481749548339844,-0.23702133701705222,0.14860438882642149,0.32863407851577803,-0.01265534150005654,0.86861662114024429,-1.8077963585232282,0.0011504855909142309,1.028150623080351,-2.0459468758424739,0.0080533991363996166,1.047708878125893,-2.0865973667214432,0.020325245439484746,0.84790788050378818,-1.8016604353716856,1,0,0,1
2.149,-1.0217255584716798,0.61411272583007814,13.086706274414063,-0.23222764705490959,0.14434333108229472,0.33822145844006329,-0.01265534150005654,0.86823312594327295,-1.8077963585232282,0.0015339807878856412,1.0270001374894369,-2.0424954190697311,0.0076699039394282058,1.0473253829289215,-2.0850633859335579,0.020708740636456155,0.84714089010984539,-1.8012769401747142,1,0,0,1
2.1499999999999999,-1.0037690460205078,0.70030398559570317,13.302184423828125,-0.23915186588911561,0.15233281435253243,0.33236250404188894,-0.01265534150005654,0.8678496307463015,-1.8077963585232282,0.0019174759848570515,1.0258496518985225,-2.0394274574939599,0.0076699039394282058,1.0469418877319501,-2.0831459099487009,0.021092235833427567,0.84637389971590249,-1.8012769401747142,1,0,0,1
2.1510000000000002,-0.92296473999023443,0.47046062622070312,12.935871569824219,-0.23542344036300467,0.1464738599543581,0.32490565298966706,-0.01265534150005654,0.8678496307463015,-1.8077963585232282,0.0023009711818284618,1.0243156711106369,-2.0359760007212171,0.0072864087424567951,1.0461748973380072,-2.0808449387668722,0.021092235833427567,0.84599040451893115,-1.8008934449777427,1,0,0,1
2.1520000000000001,-0.94451255493164066,0.58538230590820317,13.097480181884766,-0.23276027927292545,0.13901700890213625,0.32969934295180969,-0.013038836697027951,0.86746613554933005,-1.8074128633262567,0.0023009711818284618,1.0227816903227513,-2.032141048751503,0.0072864087424567951,1.0454079069440645,-2.0785439675850439,0.021475731030398976,0.84522341412498825,-1.8008934449777427,1,0,0,1
2.153,-0.89782562255859377,0.59256491088867191,12.754510794067382,-0.22690132487475112,0.13369068672197776,0.34354778062022173,-0.013038836697027951,0.86708264035235871,-1.8074128633262567,0.002684466378799872,1.0208642143378941,-2.0279226015848177,0.0069029135454853853,1.0442574213531501,-2.075859501206244,0.021859226227370385,0.84445642373104546,-1.8005099497807713,1,0,0,1
2.1539999999999999,-0.88525606384277344,0.6985083343505859,12.90354984741211,-0.23755396923506805,0.1374191122480887,0.31691616971942937,-0.013038836697027951,0.86669914515538726,-1.8074128633262567,0.0030679615757712823,1.0193302335500085,-2.023704154418132,0.0069029135454853853,1.0434904309592075,-2.073175034827444,0.022242721424341798,0.84368943333710267,-1.8001264545837998,1,0,0,1
2.1550000000000002,-0.71826049804687497,0.55844753723144536,12.46900224609375,-0.24234765919721069,0.13102752563189854,0.32330775633561953,-0.013038836697027951,0.86631564995841581,-1.8070293681292853,0.0034514567727426926,1.0174127575651515,-2.0194857072514467,0.0069029135454853853,1.0423399453682931,-2.0701070732516729,0.022626216621313207,0.84292244294315988,-1.8001264545837998,1,0,0,1
2.1560000000000001,-0.64643444824218754,0.52612581481933596,12.643180416870118,-0.22317289934864018,0.13369068672197776,0.34248251618419007,-0.01342233189399936,0.86593215476144447,-1.8070293681292853,0.0038349519697141029,1.0154952815802945,-2.0148837648877898,0.0069029135454853853,1.0408059645804075,-2.06665561647893,0.023009711818284616,0.84215545254921698,-1.7997429593868286,1,0,0,1
2.157,-0.69671268310546874,0.60513446960449224,12.249932794189453,-0.23169501483689373,0.1150485590914231,0.32011196302752443,-0.01342233189399936,0.86554865956447302,-1.8070293681292853,0.0038349519697141029,1.013194310398466,-2.0098983273271616,0.0065194183485139754,1.0396554789894934,-2.0632041597061872,0.023393207015256028,0.84138846215527419,-1.7993594641898571,1,0,0,1
2.1579999999999999,-0.81522566528320317,0.5656301422119141,12.479776153564453,-0.24074976254316316,0.11771172018150233,0.33822145844006329,-0.01342233189399936,0.86516516436750157,-1.8066458729323138,0.0042184471666855128,1.0112768344136089,-2.0049128897665329,0.0065194183485139754,1.0381214982016076,-2.0593692077364731,0.023776702212227437,0.8406214717613314,-1.7993594641898571,1,0,0,1
2.1590000000000003,-0.68234747314453126,0.52971711730957027,12.00213292236328,-0.21891184160451341,0.11025486912928047,0.32703618186173045,-0.013805827090970771,0.86478166917053023,-1.8066458729323138,0.0042184471666855128,1.0089758632317805,-1.9995439570089333,0.0065194183485139754,1.036587517413722,-2.0555342557667591,0.023776702212227437,0.84023797656435995,-1.7989759689928857,1,0,0,1
2.1600000000000001,-0.63745619201660153,0.47405192871093749,12.158354580688476,-0.20772656502618059,0.11078750134729631,0.31158984753927088,-0.013805827090970771,0.86439817397355878,-1.8062623777353424,0.0046019423636569235,1.0062913968529805,-1.9941750242513334,0.0065194183485139754,1.034670041428865,-2.0513158086000738,0.02416019740919885,0.83947098617041715,-1.7985924737959142,1,0,0,1
2.161,-0.51535190734863279,0.4758475799560547,11.644798324584961,-0.22477079600268771,0.10386328251309029,0.32170985968157201,-0.013805827090970771,0.86401467877658744,-1.8058788825383711,0.0046019423636569235,1.003990425671152,-1.9884225962967623,0.0061359231515425647,1.032752565444008,-2.0467138662364168,0.024543692606170259,0.83870399577647436,-1.7982089785989428,1,0,0,1
2.1619999999999999,-0.52253451232910153,0.45250411376953126,11.880028637695313,-0.22210763491260849,0.088416948190630715,0.3126551119753026,-0.013805827090970771,0.86363118357961599,-1.8058788825383711,0.0049854375606283342,1.0013059592923523,-1.9826701683421912,0.0061359231515425647,1.0308350894591509,-2.0421119238727599,0.024927187803141668,0.83793700538253146,-1.7978254834019713,1,0,0,1
2.1630000000000003,-0.39324762268066404,0.50278234863281246,11.380837591552734,-0.20026971397395874,0.10492854694912199,0.30093720317895395,-0.014189322287942181,0.86324768838264454,-1.8054953873413997,0.0049854375606283342,0.9986214929135524,-1.9769177403876201,0.0061359231515425647,1.0289176134742939,-2.0375099815091029,0.02531068300011308,0.83717001498858867,-1.7978254834019713,1,0,0,1
2.1640000000000001,-0.39504327392578126,0.47405192871093749,11.553220111083984,-0.21411815164237077,0.098004328114915967,0.30679615757712825,-0.014189322287942181,0.8628641931856732,-1.8051118921444282,0.0053689327575997441,0.99593702653475258,-1.9707818172360776,0.0061359231515425647,1.0270001374894369,-2.0325245439484747,0.02531068300011308,0.83640302459464588,-1.7974419882050001,1,0,0,1
2.165,-0.33937808532714842,0.38965632019042967,11.113285556030274,-0.20346550728205381,0.078296936048329602,0.31531827306538185,-0.014189322287942181,0.8620972027917303,-1.8047283969474568,0.0053689327575997441,0.99325256015595265,-1.9642623988875636,0.0061359231515425647,1.0246991663076084,-2.0271556111908748,0.025694178197084489,0.83563603420070298,-1.7970584930080287,1,0,0,1
2.1659999999999999,-0.48303018493652344,0.42556934509277344,11.212046374511718,-0.19973708175594287,0.092678005934757501,0.32543828520768292,-0.01457281748491359,0.86171370759475896,-1.8047283969474568,0.0053689327575997441,0.99018459858018137,-1.9581264757360211,0.0061359231515425647,1.0223981951257799,-2.021786678433275,0.026077673394055902,0.83486904380676019,-1.7966749978110572,1,0,0,1
2.1670000000000003,-0.30526071166992186,0.3196259216308594,10.863690032958985,-0.20719393280816475,0.086286419318567328,0.30466562870506486,-0.01457281748491359,0.86133021239778751,-1.8043449017504853,0.005752427954571154,0.9871166370044101,-1.9516070573875071,0.0061359231515425647,1.01971372874698,-2.0164177456756751,0.026461168591027311,0.83448554860978885,-1.7962915026140858,1,0,0,1
2.1680000000000001,-0.20829554443359374,0.40581718139648437,11.055824716186523,-0.21092235833427567,0.077231671612297909,0.30200246761498561,-0.014956312681885001,0.86094671720081606,-1.8039614065535141,0.005752427954571154,0.98404867542863883,-1.9447041438420216,0.0061359231515425647,1.0174127575651515,-2.010665317721104,0.026461168591027311,0.83371855821584595,-1.7959080074171143,1,0,0,1
2.169,-0.1849520782470703,0.34656069030761721,10.527903250122071,-0.20506340393610137,0.074035878304202829,0.29134982325466868,-0.014956312681885001,0.86056322200384472,-1.8035779113565427,0.005752427954571154,0.98098071385286756,-1.9381847254935076,0.0061359231515425647,1.0147282911863515,-2.0045293945695617,0.02684466378799872,0.83295156782190316,-1.7959080074171143,1,0,0,1
2.1699999999999999,-0.1849520782470703,0.30705636291503907,10.644620581054687,-0.20186761062800626,0.047404267403410444,0.29933930652490637,-0.014956312681885001,0.86017972680687327,-1.8031944161595712,0.005752427954571154,0.97791275227709629,-1.9312818119480222,0.0061359231515425647,1.0120438248075518,-1.9987769666149904,0.027228158984970132,0.83218457742796037,-1.7955245122201431,1,0,0,1
2.1710000000000003,-0.201112939453125,0.30705636291503907,10.27292077331543,-0.19387812735776855,0.040480048569204424,0.30466562870506486,-0.015339807878856412,0.85979623160990193,-1.8028109209625998,0.005752427954571154,0.97446129550435356,-1.924378898402537,0.0061359231515425647,1.0093593584287519,-1.9926410434634478,0.027228158984970132,0.83141758703401747,-1.7951410170231716,1,0,0,1
2.1720000000000002,-0.16699556579589844,0.24420856933593749,10.371681591796875,-0.20293287506403795,0.041545313005236117,0.29667614543482718,-0.015339807878856412,0.85941273641293048,-1.8024274257656283,0.005752427954571154,0.97139333392858229,-1.9174759848570515,0.0061359231515425647,1.0062913968529805,-1.9865051203119053,0.027611654181941541,0.83103409183704613,-1.7947575218262002,1,0,0,1
2.173,-0.010773907470703125,0.26575638427734377,10.005368737792969,-0.20932446168022814,0.040480048569204424,0.3036003642690332,-0.015723303075827821,0.85902924121595903,-1.8020439305686569,0.0061359231515425647,0.96794187715583957,-1.9101895761145946,0.0061359231515425647,1.0036069304741808,-1.9799857019633913,0.027611654181941541,0.83026710144310323,-1.7943740266292287,1,0,0,1
2.1739999999999999,0.082599957275390629,0.14006079711914063,10.280103378295898,-0.18269285077943576,0.025033714246744842,0.29720877765284298,-0.015723303075827821,0.85826225082201624,-1.8016604353716856,0.0061359231515425647,0.96449042038309685,-1.9032866625691094,0.0061359231515425647,1.0005389688984094,-1.9734662836148773,0.02799514937891295,0.82950011104916044,-1.7939905314322573,1,0,0,1
2.1750000000000003,0.13826514587402344,0.1885433807373047,9.8940383605957027,-0.17896442525332482,0.022370553156665602,0.28762139772855777,-0.015723303075827821,0.85787875562504479,-1.8012769401747142,0.0061359231515425647,0.96103896361035424,-1.8960002538266525,0.0061359231515425647,0.99747100732263816,-1.9669468652663633,0.028378644575884363,0.82873312065521765,-1.7939905314322573,1,0,0,1
2.1760000000000002,0.037708676147460936,-0.030526071166992186,10.098742602539062,-0.17310547085515049,0.023435817592697299,0.27377296006014573,-0.016106798272799233,0.85749526042807345,-1.8008934449777427,0.0061359231515425647,0.95758750683761151,-1.889097340281167,0.0061359231515425647,0.99440304574686689,-1.9604274469178493,0.028378644575884363,0.8283496254582462,-1.7936070362352858,1,0,0,1
2.177,0.14724340209960937,0.05746083984375,9.9874122253417976,-0.17044230976507124,-0.0010652644360316954,0.2892192943826053,-0.016106798272799233,0.857111765231102,-1.8005099497807713,0.0061359231515425647,0.95413605006486879,-1.8818109315387104,0.0061359231515425647,0.99133508417109562,-1.9535245333723641,0.028762139772855772,0.82758263506430341,-1.7932235410383146,1,0,0,1
2.1779999999999999,0.034117373657226564,-0.10594342346191406,10.177751257324219,-0.15712650431467506,-0.0079894832702377145,0.27164243118808229,-0.016490293469770642,0.85672827003413055,-1.8001264545837998,0.0061359231515425647,0.95068459329212607,-1.8749080179932249,0.0061359231515425647,0.98788362739835289,-1.9466216198268786,0.028762139772855772,0.82719913986733196,-1.7928400458413432,1,0,0,1
2.1789999999999998,0.068234747314453129,-0.30526071166992186,10.149020837402343,-0.14700649217237396,-0.0063915866161901721,0.2689792700980031,-0.016490293469770642,0.85634477483715921,-1.7997429593868286,0.0061359231515425647,0.94684964132241201,-1.8680051044477395,0.0061359231515425647,0.98481566582258162,-1.9397187062813932,0.02914563496982718,0.82643214947338917,-1.7924565506443717,1,0,0,1
2.1800000000000002,-0.16340426330566407,-0.42197804260253907,10.608707556152345,-0.1272991001057876,-0.030892668644919165,0.26844663787998724,-0.016873788666742051,0.85596127964018776,-1.7993594641898571,0.005752427954571154,0.94339818454966928,-1.8614856860992255,0.0061359231515425647,0.9813642090498389,-1.932815792735908,0.02914563496982718,0.82604865427641772,-1.7924565506443717,1,0,0,1
2.181,-0.086191259765625,-0.57819970092773443,10.380659848022461,-0.12889699675983513,-0.042077945223251964,0.27217506340609815,-0.016873788666742051,0.85557778444321642,-1.7989759689928857,0.005752427954571154,0.93994672777692667,-1.8549662677507115,0.0061359231515425647,0.97829624747406763,-1.9259128791904225,0.02914563496982718,0.82528166388247493,-1.7920730554474003,1,0,0,1
2.1819999999999999,-0.34296938781738279,-0.7631517791748047,10.969633456420899,-0.11291803021935971,-0.060720072853806636,0.25140240690348009,-0.017257283863713464,0.85519428924624497,-1.7985924737959142,0.005752427954571154,0.93649527100418395,-1.8484468494021975,0.0065194183485139754,0.97484479070132501,-1.9190099656449371,0.029529130166798593,0.82489816868550359,-1.7916895602504288,1,0,0,1
2.1829999999999998,-0.4273649963378906,-1.0235212097167969,11.034276901245118,-0.088416948190630715,-0.066579027251980963,0.2636529479178446,-0.017640779060684873,0.85481079404927351,-1.7982089785989428,0.005752427954571154,0.93342730942841268,-1.8426944214476264,0.0065194183485139754,0.97139333392858229,-1.9117235569024804,0.029529130166798593,0.82451467348853213,-1.7913060650534576,1,0,0,1
2.1840000000000002,-0.56383449096679683,-1.1348515869140625,11.538854901123047,-0.076166407176266215,-0.097471695896900121,0.25033714246744843,-0.017640779060684873,0.85442729885230218,-1.7978254834019713,0.0053689327575997441,0.93035934785264141,-1.8369419934930553,0.0065194183485139754,0.96794187715583957,-1.904820643356995,0.029529130166798593,0.82374768309458934,-1.7913060650534576,1,0,0,1
2.1850000000000001,-0.55665188598632809,-1.2605471740722656,11.563994018554688,-0.05326322180158477,-0.10546117916713783,0.24767398137736918,-0.018024274257656285,0.85442729885230218,-1.7974419882050001,0.0053689327575997441,0.92729138627687013,-1.8315730607354554,0.0065194183485139754,0.96449042038309685,-1.8975342346145381,0.029529130166798593,0.82336418789761789,-1.7909225698564861,1,0,0,1
2.1859999999999999,-0.57281274719238284,-1.6053122131347657,12.029067691040039,-0.025033714246744842,-0.14168016999221547,0.25246767133951181,-0.018407769454627694,0.85404380365533072,-1.7966749978110572,0.0049854375606283342,0.9246069198980702,-1.8262041279778558,0.0065194183485139754,0.96103896361035424,-1.8902478258720814,0.029529130166798593,0.82298069270064644,-1.7905390746595147,1,0,0,1
2.1869999999999998,-0.56203883972167967,-1.7507599639892577,12.113463299560546,0.011717908796348649,-0.16458335536689694,0.24554345250530579,-0.018407769454627694,0.85366030845835927,-1.7962915026140858,0.0049854375606283342,0.92192245351927038,-1.8216021856141988,0.0065194183485139754,0.95758750683761151,-1.883344912326596,0.029529130166798593,0.8225971975036751,-1.7905390746595147,1,0,0,1
2.1880000000000002,-0.51714755859374995,-1.7741034301757812,12.37921968383789,0.040480048569204424,-0.17523599972721388,0.22104237047657679,-0.018791264651599103,0.85327681326138793,-1.7959080074171143,0.0046019423636569235,0.9196214823374419,-1.8173837384475133,0.0065194183485139754,0.95413605006486879,-1.8760585035841391,0.029529130166798593,0.82221370230670365,-1.7901555794625432,1,0,0,1
2.1890000000000001,-0.46148236999511721,-2.0524293731689451,12.269684957885742,0.061252705071822483,-0.20080234619197457,0.22050973825856093,-0.019174759848570515,0.85289331806441648,-1.7951410170231716,0.0042184471666855128,0.91732051115561342,-1.8135487864777993,0.0069029135454853853,0.95068459329212607,-1.8687720948416824,0.029529130166798593,0.8218302071097322,-1.7897720842655718,1,0,0,1
2.1899999999999999,-0.42556934509277344,-1.8962077148437499,12.020089434814453,0.092678005934757501,-0.22423816378467187,0.20825919724419645,-0.019558255045541924,0.85250982286744503,-1.7947575218262002,0.0042184471666855128,0.91540303517075639,-1.8100973297050567,0.0069029135454853853,0.94723313651938346,-1.8618691812961969,0.029529130166798593,0.82144671191276086,-1.7893885890686003,1,0,0,1
2.1909999999999998,-0.51535190734863279,-2.2176292877197268,12.230180630493164,0.12516857123372421,-0.24660871694133749,0.21038972611625983,-0.019941750242513337,0.85250982286744503,-1.7939905314322573,0.0038349519697141029,0.91348555918589935,-1.8066458729323138,0.0069029135454853853,0.94378167974664073,-1.8545827725537403,0.029529130166798593,0.82106321671578941,-1.7893885890686003,1,0,0,1
2.1920000000000002,-0.43813890380859377,-2.0542250244140625,12.142193719482423,0.14913702104443735,-0.26844663787998724,0.20825919724419645,-0.020325245439484746,0.85212632767047369,-1.7936070362352858,0.0034514567727426926,0.91195157839801366,-1.8039614065535141,0.0065194183485139754,0.94033022297389801,-1.8476798590082548,0.02914563496982718,0.82067972151881807,-1.7890050938716291,1,0,0,1
2.1930000000000001,-0.58717795715332033,-2.3199814086914063,12.151171975708008,0.19441075957578441,-0.27590348893220912,0.18482337965149914,-0.020708740636456155,0.85174283247350224,-1.7928400458413432,0.0030679615757712823,0.91080109280709942,-1.8016604353716856,0.0065194183485139754,0.9368787662011554,-1.8407769454627694,0.02914563496982718,0.82067972151881807,-1.7886215986746576,1,0,0,1
2.194,-0.47943888244628907,-1.9518729034423827,12.135011114501953,0.20506340393610137,-0.29987193874292223,0.17789916081729312,-0.021092235833427567,0.85174283247350224,-1.7924565506443717,0.002684466378799872,0.90965060721618518,-1.7993594641898571,0.0065194183485139754,0.93342730942841268,-1.8338740319172839,0.028762139772855772,0.82029622632184662,-1.7886215986746576,1,0,0,1
2.1949999999999998,-0.45429976501464842,-2.0416554656982422,12.303802331542968,0.24394555585125824,-0.33822145844006329,0.16138756205880184,-0.021475731030398976,0.8513593372765309,-1.7916895602504288,0.0023009711818284618,0.90850012162527094,-1.7974419882050001,0.0065194183485139754,0.92997585265566995,-1.8273546135687699,0.028762139772855772,0.82029622632184662,-1.7882381034776862,1,0,0,1
2.1960000000000002,-0.46507367248535159,-1.838746875,12.373832730102539,0.25885925795570197,-0.35473305719855458,0.16458335536689694,-0.021859226227370385,0.85097584207955945,-1.7913060650534576,0.0019174759848570515,0.90773313123132815,-1.7959080074171143,0.0061359231515425647,0.92690789107989868,-1.8208351952202562,0.028378644575884363,0.81991273112487517,-1.7882381034776862,1,0,0,1
2.1970000000000001,-0.38247371520996093,-1.8171990600585937,12.522871783447266,0.27643612115022492,-0.36378780490482399,0.14221280221023133,-0.022242721424341798,0.85097584207955945,-1.7905390746595147,0.0015339807878856412,0.90696614083738536,-1.7943740266292287,0.0061359231515425647,0.92383992950412741,-1.8146992720687134,0.028378644575884363,0.81991273112487517,-1.7878546082807147,1,0,0,1
2.198,-0.40043022766113279,-1.6502034942626953,12.738349932861329,0.28549086885649433,-0.36325517268680813,0.1475391243903898,-0.022626216621313207,0.850592346882588,-1.7901555794625432,0.0011504855909142309,0.90658264564041391,-1.7936070362352858,0.005752427954571154,0.92077196792835614,-1.8089468441141423,0.02799514937891295,0.81952923592790383,-1.7878546082807147,1,0,0,1
2.1989999999999998,-0.42018239135742186,-1.5837643981933593,12.995128060913085,0.29880667430689056,-0.3877562547155371,0.13102752563189854,-0.023393207015256028,0.850592346882588,-1.7893885890686003,0.00076699039394282058,0.90619915044344257,-1.7924565506443717,0.005752427954571154,0.91808750154955621,-1.8035779113565427,0.027611654181941541,0.81952923592790383,-1.7874711130837433,1,0,0,1
2.2000000000000002,-1.6196774230957032,-1.177947216796875,14.311340423583985,0.30786142201315997,-0.37603834591918844,0.12410330679769251,-0.023776702212227437,0.85020885168561666,-1.7890050938716291,0.00038349519697141029,0.90581565524647112,-1.7920730554474003,0.0053689327575997441,0.91540303517075639,-1.7982089785989428,0.027611654181941541,0.81952923592790383,-1.7874711130837433,1,1,1,1
2.2010000000000001,-1.6214730743408203,-1.3018471527099609,14.496292501831055,0.31158984753927088,-0.36485306934085565,0.093743270370789195,-0.02416019740919885,0.84982535648864521,-1.7882381034776862,-0,0.90543216004949967,-1.7913060650534576,0.0049854375606283342,0.9131020639889279,-1.7936070362352858,0.027228158984970132,0.81914574073093238,-1.7870876178867721,1,1,1,1
2.202,-1.4113818786621093,-1.0055646972656249,14.589666366577148,0.30573089314109658,-0.35047199945442775,0.092678005934757501,-0.024543692606170259,0.84982535648864521,-1.7878546082807147,-0.00038349519697141029,0.90504866485252833,-1.7909225698564861,0.0049854375606283342,0.91041759761012808,-1.7890050938716291,0.02684466378799872,0.81914574073093238,-1.7867041226898006,1,1,1,1
2.2029999999999998,-1.4580688110351563,-0.89782562255859377,14.81771407470703,0.30040457096093809,-0.32224249189958787,0.079894832702377155,-0.024927187803141668,0.84944186129167376,-1.7870876178867721,-0.00076699039394282058,0.90504866485252833,-1.7909225698564861,0.0046019423636569235,0.90850012162527094,-1.7851701419019148,0.026461168591027311,0.81876224553396093,-1.7867041226898006,1,1,1,1
2.2040000000000002,-1.1222820281982422,-0.82061261901855465,14.108431832885742,0.29401298434474793,-0.31158984753927088,0.071905349432139443,-0.02531068300011308,0.84905836609470242,-1.7867041226898006,-0.0011504855909142309,0.90504866485252833,-1.7909225698564861,0.0042184471666855128,0.90658264564041391,-1.7813351899322007,0.026077673394055902,0.81876224553396093,-1.7863206274928292,1,1,1,1
2.2050000000000001,-1.0468646759033202,-0.69312138061523443,14.320318679809571,0.26684874122593971,-0.29134982325466868,0.05060006071150553,-0.025694178197084489,0.84867487089773097,-1.7863206274928292,-0.0015339807878856412,0.90466516965555688,-1.7905390746595147,0.0042184471666855128,0.90466516965555688,-1.7782672283564296,0.026077673394055902,0.81837875033698959,-1.7859371322958577,1,1,1,1
2.206,-0.86011694641113279,-0.84036478271484372,13.693636395263672,0.27004453453403476,-0.28549086885649433,0.025033714246744842,-0.025694178197084489,0.84829137570075952,-1.7855536370988863,-0.0019174759848570515,0.90466516965555688,-1.7909225698564861,0.0038349519697141029,0.90313118886767119,-1.7751992667806582,0.025694178197084489,0.81799525514001814,-1.7855536370988863,1,1,1,1
2.2069999999999999,-0.78829089660644536,-0.51355625610351563,13.813945028686524,0.25406556799355934,-0.26205505126379708,0.020240024284602212,-0.026077673394055902,0.84790788050378818,-1.7851701419019148,-0.0019174759848570515,0.90466516965555688,-1.7909225698564861,0.0038349519697141029,0.90159720807978561,-1.7725148004018583,0.02531068300011308,0.81799525514001814,-1.7855536370988863,1,1,1,1
2.2080000000000002,-0.6248866333007812,-0.62847793579101563,13.224971420288085,0.23861923367109977,-0.2545982002115752,-0.00053263221801584768,-0.026461168591027311,0.84752438530681673,-1.7844031515079721,-0.0023009711818284618,0.90466516965555688,-1.7913060650534576,0.0034514567727426926,0.90044672248887137,-1.77021382922003,0.02531068300011308,0.81761175994304669,-1.7851701419019148,1,1,1,1
2.2090000000000001,-0.5333084197998047,-0.4345476013183594,13.128006253051758,0.22370553156665601,-0.23276027927292545,-0.020772656502618059,-0.026461168591027311,0.84714089010984539,-1.7840196563110007,-0.002684466378799872,0.90466516965555688,-1.7913060650534576,0.0030679615757712823,0.89929623689795712,-1.7686798484321442,0.024927187803141668,0.81722826474607535,-1.7847866467049436,1,1,1,1
2.21,-0.38067806396484377,-0.4345476013183594,12.783241213989259,0.20506340393610137,-0.22423816378467187,-0.037816887479125184,-0.02684466378799872,0.84675739491287394,-1.7836361611140292,-0.002684466378799872,0.90466516965555688,-1.7916895602504288,0.0030679615757712823,0.89814575130704288,-1.7667623724472872,0.024543692606170259,0.8168447695491039,-1.7844031515079721,1,1,1,1
2.2109999999999999,-0.3447650390625,-0.39145197143554689,12.740145584106445,0.19387812735776855,-0.20399813950006965,-0.051665325147537224,-0.02684466378799872,0.84637389971590249,-1.7832526659170578,-0.0030679615757712823,0.90466516965555688,-1.7916895602504288,0.002684466378799872,0.89737876091310009,-1.765611886856373,0.024543692606170259,0.8168447695491039,-1.7844031515079721,1,1,1,1
2.2120000000000002,-0.27653029174804689,-0.29089550170898437,12.397176196289063,0.18375811521546745,-0.19387812735776855,-0.059654808417774943,-0.027228158984970132,0.84599040451893115,-1.7824856755231151,-0.0030679615757712823,0.90466516965555688,-1.7920730554474003,0.0023009711818284618,0.8966117705191573,-1.7644614012654587,0.02416019740919885,0.81646127435213256,-1.7840196563110007,1,1,1,1
2.2130000000000001,-0.28371289672851563,-0.14544775085449219,12.179902395629883,0.16831178089300786,-0.18322548299745159,-0.067644291688012656,-0.027228158984970132,0.8456069093219597,-1.7821021803261436,-0.0030679615757712823,0.90466516965555688,-1.7920730554474003,0.0023009711818284618,0.8958447801252144,-1.763694410871516,0.023776702212227437,0.81607777915516111,-1.7836361611140292,1,1,1,1
2.214,-0.17597382202148437,-0.28909985046386721,11.892598196411132,0.16777914867499202,-0.15765913653269092,-0.084155890446503928,-0.027228158984970132,0.84483991892801691,-1.7817186851291722,-0.0034514567727426926,0.90428167445858543,-1.7924565506443717,0.0019174759848570515,0.89546128492824306,-1.7633109156745446,0.023776702212227437,0.81569428395818966,-1.7836361611140292,1,1,1,1
2.2149999999999999,-0.055665188598632814,-0.143652099609375,11.89439384765625,0.1565938720966592,-0.17683389638126143,-0.10546117916713783,-0.027228158984970132,0.84445642373104546,-1.7813351899322007,-0.0034514567727426926,0.90428167445858543,-1.7924565506443717,0.0019174759848570515,0.89469429453430016,-1.7629274204775731,0.023393207015256028,0.81569428395818966,-1.7832526659170578,1,1,1,1
2.2160000000000002,-0.041299978637695314,-0.21547814941406251,11.725602630615235,0.12090751348959743,-0.15126754991650074,-0.10652644360316954,-0.027228158984970132,0.84407292853407401,-1.7809516947352293,-0.0034514567727426926,0.90428167445858543,-1.7928400458413432,0.0015339807878856412,0.89431079933732882,-1.7625439252806017,0.023393207015256028,0.81531078876121832,-1.7828691707200865,1,1,1,1
2.2170000000000001,-0.046686932373046872,-0.10594342346191406,11.531672296142577,0.10918960469324877,-0.14221280221023133,-0.13262542228594607,-0.027228158984970132,0.84368943333710267,-1.7805681995382581,-0.0034514567727426926,0.90389817926161409,-1.7928400458413432,0.0011504855909142309,0.89392730414035737,-1.7625439252806017,0.023009711818284616,0.81492729356424687,-1.7824856755231151,1,1,1,1
2.218,-0.003591302490234375,-0.17058686828613281,11.416750616455078,0.094275902588805041,-0.13528858337602531,-0.1374191122480887,-0.027228158984970132,0.84330593814013122,-1.7801847043412866,-0.0034514567727426926,0.90389817926161409,-1.7928400458413432,0.0011504855909142309,0.89354380894338603,-1.7625439252806017,0.023009711818284616,0.81454379836727542,-1.7824856755231151,1,1,1,1
2.2189999999999999,0.10953472595214844,-0.14185644836425781,11.260528958129882,0.074568510522218676,-0.12623383566975591,-0.15339807878856412,-0.027228158984970132,0.84292244294315988,-1.7798012091443152,-0.0034514567727426926,0.90351468406464264,-1.7928400458413432,0.00076699039394282058,0.89354380894338603,-1.7629274204775731,0.022626216621313207,0.81454379836727542,-1.7821021803261436,1,1,1,1
2.2200000000000002,0.29987375793457033,-0.23343466186523437,11.142015975952148,0.082025361574440542,-0.10812434025721708,-0.16884441311102372,-0.02684466378799872,0.84253894774618843,-1.7794177139473437,-0.0034514567727426926,0.90313118886767119,-1.7924565506443717,0.00076699039394282058,0.89316031374641458,-1.7629274204775731,0.022626216621313207,0.81416030317030408,-1.7817186851291722,1,1,1,1
2.2210000000000001,0.36631285400390623,-0.048482583618164064,10.921150872802734,0.045806370749362897,-0.10918960469324877,-0.20240024284602212,-0.02684466378799872,0.84215545254921698,-1.7790342187503723,-0.0034514567727426926,0.90313118886767119,-1.7924565506443717,0.00038349519697141029,0.89316031374641458,-1.7633109156745446,0.022242721424341798,0.81377680797333263,-1.7817186851291722,1,1,1,1
2.222,0.23882161560058593,-0.17597382202148437,10.806229193115234,0.040480048569204424,-0.10066748920499521,-0.1965412884478478,-0.02684466378799872,0.84177195735224564,-1.7790342187503723,-0.0030679615757712823,0.90274769367069985,-1.7920730554474003,0.00038349519697141029,0.89277681854944313,-1.763694410871516,0.022242721424341798,0.81339331277636118,-1.7813351899322007,1,1,1,1
2.2229999999999999,0.29807810668945312,-0.18315642700195311,10.658985791015626,0.029827404208887472,-0.094275902588805041,-0.20932446168022814,-0.026461168591027311,0.84138846215527419,-1.778650723553401,-0.0030679615757712823,0.9023641984737284,-1.7916895602504288,0,0.89277681854944313,-1.7640779060684872,0.021859226227370385,0.81339331277636118,-1.7809516947352293,1,1,1,1
2.2240000000000002,0.32142157287597656,-0.15083470458984374,10.43273373413086,0.0095873799242852577,-0.10226538585904275,-0.22157500269459263,-0.026077673394055902,0.84100496695830274,-1.7782672283564296,-0.0030679615757712823,0.90159720807978561,-1.7913060650534576,-0,0.89239332335247179,-1.7648448964624301,0.021859226227370385,0.81300981757938984,-1.7809516947352293,1,1,1,1
2.2250000000000001,0.35374329528808596,-0.037708676147460936,10.391433755493164,0.0047936899621426289,-0.076166407176266215,-0.22636869265673526,-0.026077673394055902,0.8406214717613314,-1.7778837331594581,-0.002684466378799872,0.90121371288281416,-1.7909225698564861,-0.00038349519697141029,0.89239332335247179,-1.7652283916594016,0.021475731030398976,0.81300981757938984,-1.7805681995382581,1,1,1,1
2.226,0.35194764404296874,-0.1310825408935547,10.104129556274414,-0.0031957933080950861,-0.070307452778091889,-0.22956448596483034,-0.025694178197084489,0.8406214717613314,-1.7778837331594581,-0.002684466378799872,0.90083021768584282,-1.7901555794625432,-0.00038349519697141029,0.89200982815550034,-1.765611886856373,0.021475731030398976,0.81262632238241839,-1.7801847043412866,1,1,1,1
2.2269999999999999,0.5009866973876953,-0.229843359375,9.9173818267822273,-0.015446334322459582,-0.084155890446503928,-0.24181502697919485,-0.02531068300011308,0.84023797656435995,-1.7775002379624867,-0.0023009711818284618,0.90006322729189991,-1.7897720842655718,-0.00076699039394282058,0.89200982815550034,-1.7659953820533445,0.021092235833427567,0.81224282718544705,-1.7798012091443152,1,1,1,1
2.2280000000000002,0.41659108886718749,-0.095169515991210943,9.7306340972900394,-0.013315805450396193,-0.068709556124044349,-0.26152241904578122,-0.024927187803141668,0.84023797656435995,-1.7775002379624867,-0.0023009711818284618,0.89967973209492857,-1.7890050938716291,-0.00076699039394282058,0.89162633295852889,-1.7663788772503157,0.021092235833427567,0.81224282718544705,-1.7798012091443152,1,1,1,1
2.2290000000000001,0.46148236999511721,-0.18136077575683593,9.5187472503662107,-0.031957933080950858,-0.069242188342060196,-0.27164243118808229,-0.024543692606170259,0.83985448136738849,-1.7771167427655152,-0.0019174759848570515,0.89891274170098567,-1.7882381034776862,-0.0011504855909142309,0.89162633295852889,-1.7667623724472872,0.020708740636456155,0.81224282718544705,-1.7794177139473437,1,1,1,1
2.23,0.58179100341796874,-0.25857377929687497,9.269151727294922,-0.027696875336824078,-0.072437981650155289,-0.27377296006014573,-0.02416019740919885,0.83985448136738849,-1.7767332475685438,-0.0019174759848570515,0.89852924650401433,-1.7874711130837433,-0.0011504855909142309,0.89124283776155755,-1.7671458676442586,0.020708740636456155,0.8118593319884756,-1.7790342187503723,1,1,1,1
2.2309999999999999,0.61770402832031246,-0.19572598571777344,8.8974519195556638,-0.020772656502618059,-0.066579027251980963,-0.29188245547268454,-0.023776702212227437,0.83947098617041715,-1.7767332475685438,-0.0015339807878856412,0.89776225611007154,-1.7867041226898006,-0.0015339807878856412,0.8908593425645861,-1.7675293628412301,0.020325245439484746,0.8118593319884756,-1.778650723553401,1,1,1,1
2.2320000000000002,0.59795186462402339,-0.23702596435546874,8.7142954925537115,-0.036218990825077645,-0.084688522664519775,-0.29294771990871621,-0.023393207015256028,0.83947098617041715,-1.7763497523715726,-0.0015339807878856412,0.89699526571612864,-1.7855536370988863,-0.0015339807878856412,0.8908593425645861,-1.7679128580382015,0.020325245439484746,0.81147583679150415,-1.7782672283564296,1,1,1,1
2.2330000000000001,0.57819970092773443,-0.26396073303222656,8.5239564605712896,-0.032490565298966712,-0.074035878304202829,-0.29933930652490637,-0.023009711818284616,0.83947098617041715,-1.7763497523715726,-0.0011504855909142309,0.8966117705191573,-1.7847866467049436,-0.0019174759848570515,0.89047584736761465,-1.7682963532351728,0.019941750242513337,0.81147583679150415,-1.7778837331594581,1,1,1,1
2.234,0.64463879699707027,-0.29987375793457033,8.4521304107666015,-0.030892668644919165,-0.066046395033965116,-0.31425300862935013,-0.022626216621313207,0.83947098617041715,-1.7759662571746011,-0.00076699039394282058,0.8958447801252144,-1.7836361611140292,-0.0019174759848570515,0.89009235217064331,-1.7682963532351728,0.019941750242513337,0.81147583679150415,-1.7775002379624867,1,1,1,1
2.2349999999999999,0.61770402832031246,-0.20829554443359374,8.312069613647461,-0.018642127630554669,-0.079362200484361309,-0.29933930652490637,-0.022242721424341798,0.83947098617041715,-1.7759662571746011,-0.00076699039394282058,0.89507778973127161,-1.7828691707200865,-0.0023009711818284618,0.88970885697367186,-1.7686798484321442,0.019558255045541924,0.81147583679150415,-1.7771167427655152,1,1,1,1
2.2360000000000002,0.83497782897949224,-0.21188684692382811,7.9798741333007817,-0.024501082028728992,-0.085753787100551482,-0.31957933080950862,-0.021859226227370385,0.83947098617041715,-1.7755827619776297,-0.00038349519697141029,0.89431079933732882,-1.7817186851291722,-0.0023009711818284618,0.88932536177670052,-1.7686798484321442,0.019558255045541924,0.81109234159453281,-1.7767332475685438,1,1,1,1
2.2370000000000001,0.79906480407714842,-0.1885433807373047,7.7787611938476564,-0.022370553156665602,-0.077764303830313755,-0.32863407851577803,-0.021475731030398976,0.83947098617041715,-1.7755827619776297,-0,0.89392730414035737,-1.7809516947352293,-0.002684466378799872,0.88894186657972907,-1.7686798484321442,0.019174759848570515,0.81109234159453281,-1.7763497523715726,1,1,1,1
2.238,0.77033438415527344,-0.17776947326660156,7.6315177917480472,-0.018109495412538822,-0.083090626010472235,-0.3328951362599048,-0.020708740636456155,0.83947098617041715,-1.7751992667806582,0,0.89316031374641458,-1.7798012091443152,-0.002684466378799872,0.88855837138275762,-1.7686798484321442,0.019174759848570515,0.81109234159453281,-1.7759662571746011,1,1,1,1
2.2389999999999999,0.8547299926757812,-0.17417817077636719,7.4842743896484372,-0.028762139772855775,-0.088416948190630715,-0.34887410280038023,-0.020325245439484746,0.83947098617041715,-1.7751992667806582,0.00038349519697141029,0.89239332335247179,-1.778650723553401,-0.0030679615757712823,0.88817487618578628,-1.7686798484321442,0.018791264651599103,0.81109234159453281,-1.7755827619776297,1,1,1,1
2.2400000000000002,0.90141692504882809,-0.19393033447265626,7.2580223327636721,-0.0047936899621426289,-0.080960097138408849,-0.34674357392831684,-0.019941750242513337,0.83985448136738849,-1.7751992667806582,0.00076699039394282058,0.89162633295852889,-1.7778837331594581,-0.0030679615757712823,0.88740788579184338,-1.7686798484321442,0.018791264651599103,0.81109234159453281,-1.7751992667806582,0,1,1,0
2.2410000000000001,0.87268650512695312,-0.2136824981689453,7.0156094146728512,-0.037284255261109338,-0.092145373716741655,-0.35899411494268135,-0.019174759848570515,0.83985448136738849,-1.7748157715836868,0.00076699039394282058,0.89124283776155755,-1.7767332475685438,-0.0034514567727426926,0.88702439059487204,-1.7686798484321442,0.018407769454627694,0.81109234159453281,-1.7748157715836868,0,1,1,0
2.242,0.87448215637207027,-0.062847793579101557,6.866570361328125,-0.013848437668412039,-0.097471695896900121,-0.36591833377688737,-0.018791264651599103,0.84023797656435995,-1.7748157715836868,0.0011504855909142309,0.89047584736761465,-1.7755827619776297,-0.0038349519697141029,0.88664089539790059,-1.7682963532351728,0.018407769454627694,0.81109234159453281,-1.7744322763867155,0,1,1,0
2.2429999999999999,0.91757778625488284,-0.19572598571777344,6.7893573577880861,-0.014381069886427887,-0.11238539800134385,-0.3675162304309349,-0.018407769454627694,0.8406214717613314,-1.7748157715836868,0.0015339807878856412,0.88970885697367186,-1.7748157715836868,-0.0038349519697141029,0.8858739050039578,-1.7682963532351728,0.018024274257656285,0.81109234159453281,-1.7740487811897441,0,1,1,0
2.2440000000000002,0.97862992858886722,-0.1005564697265625,6.5343748809814457,-0.0026631610900792382,-0.10546117916713783,-0.35686358607061797,-0.017640779060684873,0.8406214717613314,-1.7744322763867155,0.0019174759848570515,0.88932536177670052,-1.7736652859927726,-0.0042184471666855128,0.88549040980698634,-1.7679128580382015,0.017640779060684873,0.81109234159453281,-1.7736652859927726,0,1,1,0
2.2450000000000001,0.98042557983398437,-0.098760818481445314,6.3835401763916018,-0.0063915866161901721,-0.11398329465539141,-0.37284255261109339,-0.017257283863713464,0.84100496695830274,-1.7744322763867155,0.0019174759848570515,0.88855837138275762,-1.7728982955988297,-0.0046019423636569235,0.88472341941304355,-1.7675293628412301,0.017640779060684873,0.81109234159453281,-1.7736652859927726,0,1,1,0
2.246,0.97503862609863279,-0.11851298217773437,6.1303533508300783,0.00053263221801584768,-0.12889699675983513,-0.36272254046879226,-0.016873788666742051,0.84138846215527419,-1.7744322763867155,0.0023009711818284618,0.88817487618578628,-1.772131305204887,-0.0046019423636569235,0.8843399242160721,-1.7675293628412301,0.017257283863713464,0.81147583679150415,-1.7732817907958012,0,1,1,0
2.2469999999999999,0.95708211364746099,-0.080804306030273443,5.9148752014160157,0.0031957933080950861,-0.12889699675983513,-0.36432043712283979,-0.016106798272799233,0.84177195735224564,-1.7744322763867155,0.002684466378799872,0.88740788579184338,-1.7709808196139727,-0.0049854375606283342,0.88395642901910076,-1.7671458676442586,0.016873788666742051,0.81147583679150415,-1.7728982955988297,0,1,1,0
2.2480000000000002,1.1546037506103515,-0.25677812805175781,5.7245361694335939,0.013315805450396193,-0.12250541014364497,-0.36591833377688737,-0.015723303075827821,0.84253894774618843,-1.7744322763867155,0.002684466378799872,0.88702439059487204,-1.77021382922003,-0.0053689327575997441,0.88318943862515786,-1.7667623724472872,0.016873788666742051,0.8118593319884756,-1.7725148004018583,0,1,1,0
2.2490000000000001,1.0127473022460938,-0.17597382202148437,5.6993970520019532,0.0079894832702377145,-0.13369068672197776,-0.37230992039307753,-0.015339807878856412,0.84292244294315988,-1.7744322763867155,0.0030679615757712823,0.88664089539790059,-1.7694468388260871,-0.0053689327575997441,0.88280594342818652,-1.7663788772503157,0.016490293469770642,0.8118593319884756,-1.7725148004018583,0,1,1,0
2.25,1.1312602844238282,-0.070030398559570314,5.2397103332519528,0.017044230976507126,-0.14807175660840566,-0.38509309362545785,-0.01457281748491359,0.84368943333710267,-1.7744322763867155,0.0034514567727426926,0.88625740020092914,-1.7686798484321442,-0.005752427954571154,0.88203895303424362,-1.7659953820533445,0.016106798272799233,0.81224282718544705,-1.772131305204887,0,1,1,0
2.2509999999999999,0.95528646240234372,-0.030526071166992186,5.3294928955078129,0.015978966540475429,-0.13315805450396193,-0.38296256475339446,-0.014189322287942181,0.84407292853407401,-1.7744322763867155,0.0034514567727426926,0.8858739050039578,-1.7679128580382015,-0.0061359231515425647,0.88127196264030083,-1.765611886856373,0.016106798272799233,0.81262632238241839,-1.772131305204887,0,1,1,0
2.2520000000000002,1.2569558715820313,-0.093373864746093743,4.8177322906494142,0.0042610577441267814,-0.12037488127158158,-0.39201731245966387,-0.013805827090970771,0.84483991892801691,-1.7744322763867155,0.0038349519697141029,0.88549040980698634,-1.7671458676442586,-0.0061359231515425647,0.88088846744332949,-1.7652283916594016,0.015723303075827821,0.81300981757938984,-1.772131305204887,0,1,1,0
2.2530000000000001,1.1276689819335937,-0.11851298217773437,4.8392801055908201,0.021837920938649755,-0.14913702104443735,-0.39361520911371145,-0.013038836697027951,0.8456069093219597,-1.7748157715836868,0.0038349519697141029,0.88510691461001501,-1.7667623724472872,-0.0065194183485139754,0.88012147704938659,-1.7648448964624301,0.015339807878856412,0.81339331277636118,-1.772131305204887,0,1,1,0
2.254,1.2174515441894531,-0.0143652099609375,4.3239281982421875,0.025033714246744842,-0.13848437668412039,-0.3909520480236322,-0.01265534150005654,0.84675739491287394,-1.7751992667806582,0.0042184471666855128,0.88472341941304355,-1.7659953820533445,-0.0069029135454853853,0.87973798185241525,-1.7644614012654587,0.015339807878856412,0.81377680797333263,-1.772131305204887,0,1,1,0
2.2549999999999999,0.94451255493164066,-0.05027823486328125,4.4406455291748044,0.036751623043093491,-0.15020228548046904,-0.39041941580561634,-0.011888351106113719,0.84752438530681673,-1.7755827619776297,0.0046019423636569235,0.8843399242160721,-1.765611886856373,-0.0072864087424567951,0.87897099145847235,-1.7640779060684872,0.014956312681885001,0.81454379836727542,-1.772131305204887,0,1,1,0
2.2560000000000002,1.0630255371093751,0.052073886108398436,4.0851065826416013,0.035686358607061791,-0.16245282649483353,-0.37976677144529941,-0.011504855909142308,0.84867487089773097,-1.7763497523715726,0.0046019423636569235,0.88395642901910076,-1.7648448964624301,-0.0076699039394282058,0.87858749626150101,-1.7633109156745446,0.01457281748491359,0.81531078876121832,-1.7725148004018583,0,1,1,0
2.2570000000000001,1.0468646759033202,0.062847793579101557,4.2000282623291012,0.045806370749362897,-0.14860438882642149,-0.39787626685783822,-0.010737865515199488,0.84982535648864521,-1.7767332475685438,0.0049854375606283342,0.88395642901910076,-1.7644614012654587,-0.0076699039394282058,0.87820400106452956,-1.7629274204775731,0.014189322287942181,0.81607777915516111,-1.7728982955988297,0,1,1,0
2.258,0.94092125244140623,0.046686932373046872,3.8229415008544922,0.029827404208887472,-0.15712650431467506,-0.39521310576775898,-0.010354370318228077,0.8513593372765309,-1.7775002379624867,0.0049854375606283342,0.88357293382212931,-1.7640779060684872,-0.0080533991363996166,0.87743701067058677,-1.7625439252806017,0.013805827090970771,0.8168447695491039,-1.7732817907958012,0,1,1,0
2.2589999999999999,0.7398083129882812,0.10953472595214844,3.9181110168457032,0.05486111845563231,-0.15606123987864337,-0.40906154343617102,-0.0095873799242852577,0.85250982286744503,-1.778650723553401,0.0053689327575997441,0.88357293382212931,-1.763694410871516,-0.0084368943333710256,0.87705351547361532,-1.7621604300836302,0.01342233189399936,0.81799525514001814,-1.7740487811897441,0,1,1,0
2.2600000000000002,0.94451255493164066,0.012569558715820313,3.5571851165771484,0.050067428493489684,-0.14807175660840566,-0.40000679572990161,-0.009203884727313847,0.85404380365533072,-1.7794177139473437,0.005752427954571154,0.88318943862515786,-1.7633109156745446,-0.0088203895303424363,0.87628652507967253,-1.761776934886659,0.013038836697027951,0.81914574073093238,-1.7744322763867155,0,1,1,0
2.2610000000000001,0.79008654785156252,0.068234747314453129,3.7026328674316407,0.05486111845563231,-0.13422331893999362,-0.41492049783434531,-0.0084368943333710256,0.85557778444321642,-1.7805681995382581,0.005752427954571154,0.88318943862515786,-1.7629274204775731,-0.009203884727313847,0.87590302988270108,-1.7613934396896875,0.01265534150005654,0.82029622632184662,-1.7755827619776297,0,1,1,0
2.262,0.7218518005371094,0.052073886108398436,3.3848025970458986,0.045806370749362897,-0.15819176875070676,-0.41438786561632951,-0.0076699039394282058,0.85749526042807345,-1.7821021803261436,0.0061359231515425647,0.88318943862515786,-1.7629274204775731,-0.0095873799242852577,0.87551953468572974,-1.7613934396896875,0.012271846303085129,0.8218302071097322,-1.7763497523715726,0,1,1,0
2.2629999999999999,0.7218518005371094,0.059256491088867186,3.6613328887939454,0.061252705071822483,-0.16351809093086522,-0.42237734888656719,-0.0072864087424567951,0.85941273641293048,-1.7832526659170578,0.0061359231515425647,0.88280594342818652,-1.7625439252806017,-0.0095873799242852577,0.87475254429178684,-1.7610099444927161,0.011888351106113719,0.82336418789761789,-1.7775002379624867,0,1,1,0
2.2640000000000002,0.62129533081054689,0.077213003540039057,3.1387983764648437,0.05486111845563231,-0.14700649217237396,-0.41065944009021854,-0.0065194183485139754,0.86133021239778751,-1.7847866467049436,0.0065194183485139754,0.88280594342818652,-1.7621604300836302,-0.0099708751212566685,0.8743690490948155,-1.7606264492957446,0.011504855909142308,0.82489816868550359,-1.778650723553401,0,1,1,0
2.2650000000000001,0.55485623474121093,0.05027823486328125,3.3901895507812498,0.063383233943885869,-0.14487596330031058,-0.42184471666855133,-0.005752427954571154,0.86324768838264454,-1.7867041226898006,0.0065194183485139754,0.88280594342818652,-1.7621604300836302,-0.010354370318228077,0.87398555389784405,-1.7602429540987732,0.011121360712170899,0.82681564467036062,-1.7801847043412866,0,1,1,0
2.266,0.56922144470214842,0.16160861206054689,2.9089550170898439,0.06551376281594927,-0.14168016999221547,-0.40959417565418688,-0.0049854375606283342,0.86554865956447302,-1.7886215986746576,0.0069029135454853853,0.88280594342818652,-1.7621604300836302,-0.010737865515199488,0.8736020587008726,-1.7602429540987732,0.010737865515199488,0.82873312065521765,-1.7817186851291722,0,1,1,0
2.2669999999999999,0.41659108886718749,0.053869537353515629,3.2860417785644533,0.05486111845563231,-0.13049489341388268,-0.40799627900013929,-0.0046019423636569235,0.8678496307463015,-1.7905390746595147,0.0072864087424567951,0.88280594342818652,-1.761776934886659,-0.011121360712170899,0.87283506830692981,-1.7598594589018017,0.010354370318228077,0.83065059664007468,-1.7832526659170578,0,1,1,0
2.2680000000000002,0.5422866760253906,0.18315642700195311,2.8838158996582033,0.067111659469996809,-0.13528858337602531,-0.42823630328474155,-0.0038349519697141029,0.87015060192812999,-1.7928400458413432,0.0072864087424567951,0.88280594342818652,-1.761776934886659,-0.011504855909142308,0.87245157310995847,-1.7594759637048305,0.0099708751212566685,0.83295156782190316,-1.7851701419019148,0,1,1,0
2.2690000000000001,0.28909985046386721,0.18136077575683593,3.2950200347900389,0.044208474095315357,-0.13102752563189854,-0.41918155557847214,-0.0030679615757712823,0.87283506830692981,-1.7951410170231716,0.0076699039394282058,0.88280594342818652,-1.761776934886659,-0.011888351106113719,0.87206807791298702,-1.7594759637048305,0.009203884727313847,0.83525253900373164,-1.7874711130837433,0,1,1,0
2.27,0.2424129180908203,0.24779987182617189,2.7904420349121093,0.052730589583568917,-0.11398329465539141,-0.4255731421946623,-0.0023009711818284618,0.87551953468572974,-1.7978254834019713,0.0076699039394282058,0.88280594342818652,-1.761776934886659,-0.012271846303085129,0.87168458271601557,-1.7594759637048305,0.0088203895303424363,0.83755351018556012,-1.7893885890686003,0,1,1,0
2.2709999999999999,0.16699556579589844,0.14544775085449219,3.2393548461914063,0.045806370749362897,-0.11930961683554989,-0.41278996896228193,-0.0015339807878856412,0.87820400106452956,-1.8005099497807713,0.0080533991363996166,0.88280594342818652,-1.761776934886659,-0.01265534150005654,0.87130108751904423,-1.7590924685078591,0.0080533991363996166,0.84023797656435995,-1.7916895602504288,0,1,1,0
2.2720000000000002,0.17238251953125,0.24061726684570311,2.8568811309814452,0.04793689962142629,-0.10918960469324877,-0.44208474095315359,-0.00076699039394282058,0.88088846744332949,-1.8035779113565427,0.0080533991363996166,0.88280594342818652,-1.761776934886659,-0.01265534150005654,0.87091759232207278,-1.7590924685078591,0.0076699039394282058,0.84330593814013122,-1.7943740266292287,0,1,1,0
2.2730000000000001,-0.0017956512451171875,0.24779987182617189,3.2321722412109377,0.056991647327695703,-0.095873799242852581,-0.43462788990093171,-0,0.88395642901910076,-1.8066458729323138,0.0084368943333710256,0.88280594342818652,-1.761776934886659,-0.013038836697027951,0.87053409712510132,-1.7590924685078591,0.0069029135454853853,0.84599040451893115,-1.7970584930080287,0,1,1,0
2.274,0.025139117431640625,0.17417817077636719,2.8389246185302732,0.041545313005236117,-0.1027980180770586,-0.42717103884870983,0.00076699039394282058,0.88702439059487204,-1.8097138345080852,0.0088203895303424363,0.88280594342818652,-1.761776934886659,-0.01342233189399936,0.87015060192812999,-1.7590924685078591,0.0065194183485139754,0.84905836609470242,-1.7997429593868286,0,1,1,0
2.2749999999999999,-0.093373864746093743,0.229843359375,3.3183635009765626,0.037284255261109338,-0.091612741498725794,-0.42770367106672569,0.0011504855909142309,0.89009235217064331,-1.8131652912808278,0.0088203895303424363,0.88280594342818652,-1.761776934886659,-0.013805827090970771,0.86976710673115853,-1.7590924685078591,0.005752427954571154,0.85250982286744503,-1.8028109209625998,0,1,1,0
2.2760000000000002,-0.14724340209960937,0.091578213500976557,2.9233202270507812,0.025566346464760688,-0.074568510522218676,-0.40852891121815516,0.0019174759848570515,0.89316031374641458,-1.8170002432505419,0.009203884727313847,0.88280594342818652,-1.761776934886659,-0.014189322287942181,0.86938361153418708,-1.7590924685078591,0.0049854375606283342,0.85557778444321642,-1.8058788825383711,0,1,1,0
2.2770000000000001,-0.3196259216308594,0.14724340209960937,3.3632547821044922,0.028229507554839928,-0.072970613868171136,-0.42930156772077321,0.002684466378799872,0.89622827532218585,-1.8208351952202562,0.0095873799242852577,0.88280594342818652,-1.7621604300836302,-0.01457281748491359,0.86900011633721574,-1.7590924685078591,0.0046019423636569235,0.85941273641293048,-1.8089468441141423,0,1,1,0
2.278,-0.26575638427734377,0.05027823486328125,3.1962592163085937,0.016511598758491279,-0.06551376281594927,-0.41492049783434531,0.0034514567727426926,0.89967973209492857,-1.8246701471899702,0.0095873799242852577,0.88280594342818652,-1.7621604300836302,-0.014956312681885001,0.86861662114024429,-1.7590924685078591,0.0038349519697141029,0.8628641931856732,-1.8123983008868851,0,1,1,0
2.2789999999999999,-0.41120413513183596,0.00718260498046875,3.4745851593017578,0.012783173232380344,-0.068176923906028503,-0.42131208445053553,0.0042184471666855128,0.90313118886767119,-1.8288885943566557,0.0099708751212566685,0.88280594342818652,-1.7621604300836302,-0.014956312681885001,0.86823312594327295,-1.7590924685078591,0.0030679615757712823,0.86669914515538726,-1.8162332528565992,0,1,1,0
2.2800000000000002,-0.37349545898437497,0.026934768676757814,3.264493963623047,0.0053263221801584763,-0.05219795736555307,-0.42024682001450381,0.0049854375606283342,0.90658264564041391,-1.8334905367203127,0.010354370318228077,0.88280594342818652,-1.7625439252806017,-0.015339807878856412,0.8678496307463015,-1.7594759637048305,0.0023009711818284618,0.87053409712510132,-1.8196847096293418,0,1,1,0
2.2810000000000001,-0.50637365112304689,0.089782562255859372,3.695450262451172,0.0079894832702377145,-0.049002164057457984,-0.42077945223251967,0.0053689327575997441,0.91003410241315663,-1.8380924790839694,0.010354370318228077,0.88318943862515786,-1.7625439252806017,-0.015723303075827821,0.86746613554933005,-1.7594759637048305,0.0015339807878856412,0.8743690490948155,-1.8239031567960273,0,1,1,0
2.282,-0.49380409240722656,0.073621701049804686,3.4278982269287108,0.0074568510522218679,-0.051132692929521377,-0.42290998110458305,0.0061359231515425647,0.91348555918589935,-1.8426944214476264,0.010737865515199488,0.88318943862515786,-1.7625439252806017,-0.016106798272799233,0.86746613554933005,-1.7598594589018017,0.00076699039394282058,0.87820400106452956,-1.8277381087657414,0,1,1,0
2.2829999999999999,-0.51535190734863279,0.098760818481445314,3.8462849670410155,-0.0085221154882535628,-0.033023197516982558,-0.39947416351188575,0.0069029135454853853,0.91693701595864197,-1.8476798590082548,0.011121360712170899,0.88318943862515786,-1.7629274204775731,-0.016106798272799233,0.86708264035235871,-1.7602429540987732,0,0.88242244823121507,-1.8319565559324269,0,1,1,0
2.2840000000000003,-0.56383449096679683,0.010773907470703125,3.7690719635009766,-0.016511598758491279,-0.028762139772855775,-0.402137324601965,0.0072864087424567951,0.92077196792835614,-1.852665296568883,0.011121360712170899,0.88318943862515786,-1.7629274204775731,-0.016490293469770642,0.86669914515538726,-1.7606264492957446,-0.00038349519697141029,0.88664089539790059,-1.8361750030991124,0,1,1,0
2.2850000000000001,-0.79367785034179683,-0.032321722412109372,4.1048587463378903,-0.030892668644919165,-0.023435817592697299,-0.402137324601965,0.0080533991363996166,0.92422342470109875,-1.8576507341295114,0.011504855909142308,0.88318943862515786,-1.7633109156745446,-0.016873788666742051,0.86631564995841581,-1.7610099444927161,-0.0011504855909142309,0.8908593425645861,-1.8407769454627694,0,1,1,0
2.286,-0.71826049804687497,-0.12210428466796874,4.0240544403076175,-0.033555829734998405,-0.021837920938649755,-0.39734363463982236,0.0084368943333710256,0.92805837667081292,-1.8630196668871113,0.011888351106113719,0.88318943862515786,-1.763694410871516,-0.016873788666742051,0.86631564995841581,-1.7613934396896875,-0.0019174759848570515,0.89507778973127161,-1.8453788878264263,0,1,1,0
2.2869999999999999,-0.72903440551757814,-0.05746083984375,4.4406455291748044,-0.041012680787220271,-0.0074568510522218679,-0.39894153129386989,0.0088203895303424363,0.93189332864052699,-1.8683885996447109,0.012271846303085129,0.88318943862515786,-1.763694410871516,-0.017257283863713464,0.86593215476144447,-1.761776934886659,-0.002684466378799872,0.89967973209492857,-1.8503643253870548,0,1,1,0
2.2880000000000003,-0.77392568664550776,-0.17238251953125,4.3490673156738282,-0.043143209659283664,0.013848437668412039,-0.40000679572990161,0.009203884727313847,0.93534478541326971,-1.874141027599282,0.012271846303085129,0.88318943862515786,-1.7640779060684872,-0.017257283863713464,0.86593215476144447,-1.7621604300836302,-0.0034514567727426926,0.90389817926161409,-1.8553497629476829,0,1,1,0
2.2890000000000001,-0.87448215637207027,-0.16340426330566407,4.803367080688477,-0.05326322180158477,0.016511598758491279,-0.38828888693355296,0.0095873799242852577,0.93917973738298377,-1.8795099603568819,0.01265534150005654,0.88318943862515786,-1.7640779060684872,-0.017640779060684873,0.86554865956447302,-1.7625439252806017,-0.0038349519697141029,0.9081166264282996,-1.8603352005083114,0,1,1,0
2.29,-0.83497782897949224,-0.201112939453125,4.7351323333740236,-0.062317969507854176,0.020772656502618059,-0.38296256475339446,0.0099708751212566685,0.94301468935269794,-1.885262388311453,0.013038836697027951,0.88318943862515786,-1.7644614012654587,-0.018024274257656285,0.86516516436750157,-1.7633109156745446,-0.0046019423636569235,0.91271856879195645,-1.865704133265911,0,1,1,0
2.2909999999999999,-0.89602997131347661,-0.28730419921875,5.1283799560546877,-0.05486111845563231,0.018642127630554669,-0.38242993253537866,0.010354370318228077,0.94684964132241201,-1.8913983114629955,0.01342233189399936,0.88318943862515786,-1.7648448964624301,-0.018024274257656285,0.86516516436750157,-1.763694410871516,-0.0053689327575997441,0.91732051115561342,-1.8710730660235109,0,1,1,0
2.2920000000000003,-0.94810385742187497,-0.23523031311035156,5.1158103973388673,-0.063383233943885869,0.025033714246744842,-0.36538570155887151,0.010737865515199488,0.95030109809515473,-1.8971507394175666,0.013805827090970771,0.88318943862515786,-1.7652283916594016,-0.018407769454627694,0.86478166917053023,-1.7644614012654587,-0.005752427954571154,0.92153895832229893,-1.8764419987811105,0,1,1,0
2.2930000000000001,-1.0486603271484376,-0.22625205688476563,5.6545057708740236,-0.071372717214123582,0.034088461953014251,-0.37284255261109339,0.011121360712170899,0.95413605006486879,-1.9032866625691094,0.013805827090970771,0.88318943862515786,-1.7652283916594016,-0.018407769454627694,0.86478166917053023,-1.7648448964624301,-0.0065194183485139754,0.92614090068595589,-1.8818109315387104,0,1,1,0
2.294,-1.0163386047363281,-0.33758243408203126,5.6868274932861329,-0.068709556124044349,0.038349519697141031,-0.36858149486696662,0.011504855909142308,0.95797100203458296,-1.9094225857206519,0.014189322287942181,0.88318943862515786,-1.765611886856373,-0.018791264651599103,0.86439817397355878,-1.765611886856373,-0.0069029135454853853,0.93074284304961274,-1.8875633594932815,0,1,1,0
2.2949999999999999,-1.0720037933349609,-0.35733459777832033,6.1106011871337893,-0.077231671612297909,0.040480048569204424,-0.35739621828863377,0.011504855909142308,0.96180595400429703,-1.9155585088721945,0.01457281748491359,0.88318943862515786,-1.7659953820533445,-0.018791264651599103,0.86439817397355878,-1.7663788772503157,-0.0072864087424567951,0.93496129021629826,-1.8933157874478526,0,1,1,0
2.2960000000000003,-1.0486603271484376,-0.30705636291503907,6.13574030456543,-0.090014844844678255,0.039947416351188578,-0.35686358607061797,0.011888351106113719,0.96525741077703975,-1.921694432023737,0.014956312681885001,0.88280594342818652,-1.7663788772503157,-0.019174759848570515,0.86401467877658744,-1.7671458676442586,-0.0076699039394282058,0.93956323257995522,-1.8990682154024239,0,1,1,0
2.2970000000000002,-1.0935516082763672,-0.48662148742675781,6.4445923187255856,-0.087884315972614868,0.049534796275473837,-0.34194988396617421,0.011888351106113719,0.96909236274675381,-1.9278303551752796,0.015339807878856412,0.88280594342818652,-1.7667623724472872,-0.019174759848570515,0.86401467877658744,-1.7675293628412301,-0.0084368943333710256,0.94378167974664073,-1.904820643356995,0,1,1,0
2.298,-1.1474211456298828,-0.3860650177001953,6.5541270446777347,-0.079894832702377155,0.041012680787220271,-0.34194988396617421,0.012271846303085129,0.97254381951949653,-1.9339662783268221,0.015723303075827821,0.88280594342818652,-1.7671458676442586,-0.019174759848570515,0.86363118357961599,-1.7682963532351728,-0.0088203895303424363,0.9483836221102977,-1.9109565665085375,0,1,1,0
2.2989999999999999,-1.2210428466796874,-0.52612581481933596,7.0748659057617189,-0.081492729356424695,0.055926382891664003,-0.33182987182387308,0.012271846303085129,0.9763787714892106,-1.9401022014783647,0.015723303075827821,0.88280594342818652,-1.7675293628412301,-0.019558255045541924,0.86363118357961599,-1.7690633436291157,-0.009203884727313847,0.95260206927698321,-1.9167089944631086,0,1,1,0
2.3000000000000003,-1.2138602416992188,-0.38247371520996093,7.1305310943603519,-0.094275902588805041,0.05912217619975909,-0.33715619400403157,0.012271846303085129,0.97983022826195332,-1.9462381246299072,0.016106798272799233,0.88280594342818652,-1.7679128580382015,-0.019558255045541924,0.86363118357961599,-1.7698303340230586,-0.009203884727313847,0.95682051644366872,-1.9228449176146512,0,1,1,0
2.3010000000000002,-1.2641384765625001,-0.43634325256347656,7.504026553344727,-0.092678005934757501,0.05752427954571155,-0.33609092956799991,0.012271846303085129,0.98328168503469604,-1.9527575429784212,0.016490293469770642,0.88280594342818652,-1.7686798484321442,-0.019941750242513337,0.86324768838264454,-1.7705973244170012,-0.0095873799242852577,0.96103896361035424,-1.9285973455692225,0,1,1,0
2.302,-1.2569558715820313,-0.52073886108398437,7.7446438201904293,-0.078296936048329602,0.074568510522218676,-0.33928672287609496,0.012271846303085129,0.98673314180743865,-1.9588934661299637,0.016873788666742051,0.88280594342818652,-1.7690633436291157,-0.019941750242513337,0.86324768838264454,-1.7713643148109441,-0.0099708751212566685,0.96525741077703975,-1.934733268720765,0,1,1,0
2.3029999999999999,-1.4329296936035156,-0.55126493225097661,8.1109566741943357,-0.075633774958250369,0.080960097138408849,-0.31957933080950862,0.012271846303085129,0.99018459858018137,-1.9650293892815063,0.017257283863713464,0.88280594342818652,-1.7694468388260871,-0.019941750242513337,0.8628641931856732,-1.772131305204887,-0.0099708751212566685,0.96947585794372526,-1.9404856966753361,0,1,1,0
2.3040000000000003,-1.3970166687011718,-0.54946928100585934,8.292317449951172,-0.061252705071822483,0.085221154882535621,-0.32277512411760367,0.012271846303085129,0.9936360553529241,-1.9711653124330488,0.017257283863713464,0.88280594342818652,-1.77021382922003,-0.020325245439484746,0.8628641931856732,-1.7728982955988297,-0.010354370318228077,0.97369430511041077,-1.9466216198268786,0,1,1,0
